"success","ttype","start_time","trial_type","trial_index","time_elapsed","internal_node_id","age","PID","gender","rt","responses","view_history","repeat_instructions","key_press","response","index","stimulus_index","path","start_time_elapsed","run","task","isi","is_odd_ball","no_response","acc","duration","onset","duration_time_elapsed","onset_time_elapsed","trial_duration","left_chosen","chosen_stimulus","unchosen_stimulus","chosen_category","unchosen_category","chosen_rating","unchosen_rating","chosen_path","unchosen_path","pair_id","practice","scramble_screen_time","scramble_instructed_side","stim_type","iti","block","left_stimulus","right_stimulus","left_category","right_category","left_path","right_path","left_rating","right_rating","scramble_acc","scramble_no_response","warning","missed_checkup","stimulus_id","item_id","outcome","response_rt","deliberation_reward_tally","choice_type","gain_left","left_item_id","right_item_id","higher_outcome_chosen","chosen_left","old_pair","pair_type","old_response","pair_acc","reward_type","outcome_response","outcome_rt","outcome_acc","category","choice","deliberated_stim","old_rating","new_rating","total_reward_tally"
"true","full_screen","d08172023hr1622","fullscreen","0","11688","0.0-0.0-0.0","34","38808","Female","","","","","","","","","","","","","","","","","","","","","","","","","","","","","","","","","","","","","","","","","","","","","","","","","","","","","","","","","","","","","","","","","","","","","","","","","",""
"","get_id","","survey-text","1","26804","0.0-0.0-1.0","34","38808","Female","15081","{""Q0"":""34"",""Q1"":""Female""}","","","","","","","","","","","","","","","","","","","","","","","","","","","","","","","","","","","","","","","","","","","","","","","","","","","","","","","","","","","","","","","","","","","","","","","",""
"","ratings_instructions","","instructions","2","46145","0.0-1.0-0.0-0.0","34","38808","Female","17700","","[{""page_index"":0,""viewing_time"":14330},{""page_index"":1,""viewing_time"":3368}]","","","","","","","","","","","","","","","","","","","","","","","","","","","","","","","","","","","","","","","","","","","","","","","","","","","","","","","","","","","","","","","","","","","","","","",""
"","rating_comprehension_check","","survey-multi-choice","3","57216","0.0-1.0-0.0-1.0","34","38808","Female","11030","{""Q0"":""True"",""Q1"":""Mouse""}","","0","","","","","","","","","","","","","","","","","","","","","","","","","","","","","","","","","","","","","","","","","","","","","","","","","","","","","","","","","","","","","","","","","","","","","",""
"","","","html-keyboard-response","4","62921","0.0-1.0-1.0","34","38808","Female","5681","","","","68","","","","","","","","","","","","","","","","","","","","","","","","","","","","","","","","","","","","","","","","","","","","","","","","","","","","","","","","","","","","","","","","","","","","",""
"","rating","","html-slider-response","5","67748","0.0-1.0-2.0","34","38808","Female","4800","","","","","75","0","38","Stimuli/Experimental_stims/objects/art-lasovsky-8XddFc6NkBY-unsplash.jpg","","","","","","","","","","","","","","","","","","","","","","","","","","","","","","","","","","","","","","","","","","","","","","","","","","","","","","","","","","","","","","","","",""
"","rating","","html-slider-response","6","71130","0.0-1.0-3.0","34","38808","Female","3357","","","","","44","1","24","Stimuli/Experimental_stims/body_parts/clay-banks-LjqARJaJotc-unsplash.jpg","","","","","","","","","","","","","","","","","","","","","","","","","","","","","","","","","","","","","","","","","","","","","","","","","","","","","","","","","","","","","","","","",""
"","rating","","html-slider-response","7","74265","0.0-1.0-4.0","34","38808","Female","3116","","","","","79","2","13","Stimuli/Experimental_stims/faces/daniel-rigdon-dXmXKPP2L4E-unsplash.jpg","","","","","","","","","","","","","","","","","","","","","","","","","","","","","","","","","","","","","","","","","","","","","","","","","","","","","","","","","","","","","","","","",""
"","rating","","html-slider-response","8","77912","0.0-1.0-5.0","34","38808","Female","3621","","","","","90","3","2","Stimuli/Experimental_stims/outdoor_scenes/bruno-van-der-kraan-qez8mNJ3ilU-unsplash.jpg","","","","","","","","","","","","","","","","","","","","","","","","","","","","","","","","","","","","","","","","","","","","","","","","","","","","","","","","","","","","","","","","",""
"","rating","","html-slider-response","9","81466","0.0-1.0-6.0","34","38808","Female","3530","","","","","80","4","36","Stimuli/Experimental_stims/objects/alexander-andrews-JYGnB9gTCls-unsplash.jpg","","","","","","","","","","","","","","","","","","","","","","","","","","","","","","","","","","","","","","","","","","","","","","","","","","","","","","","","","","","","","","","","",""
"","rating","","html-slider-response","10","84082","0.0-1.0-7.0","34","38808","Female","2593","","","","","28","5","7","Stimuli/Experimental_stims/outdoor_scenes/petr-vysohlid-9fqwGqGLUxc-unsplash.jpg","","","","","","","","","","","","","","","","","","","","","","","","","","","","","","","","","","","","","","","","","","","","","","","","","","","","","","","","","","","","","","","","",""
"","rating","","html-slider-response","11","87272","0.0-1.0-8.0","34","38808","Female","3177","","","","","76","6","28","Stimuli/Experimental_stims/body_parts/ira-vishnevskaya-8DQAvdCby1I-unsplash.jpg","","","","","","","","","","","","","","","","","","","","","","","","","","","","","","","","","","","","","","","","","","","","","","","","","","","","","","","","","","","","","","","","",""
"","rating","","html-slider-response","12","90076","0.0-1.0-9.0","34","38808","Female","2788","","","","","29","7","14","Stimuli/Experimental_stims/faces/david-siglin-UuW4psOb388-unsplash.jpg","","","","","","","","","","","","","","","","","","","","","","","","","","","","","","","","","","","","","","","","","","","","","","","","","","","","","","","","","","","","","","","","",""
"","rating","","html-slider-response","13","92655","0.0-1.0-10.0","34","38808","Female","2557","","","","","83","8","23","Stimuli/Experimental_stims/faces/rikonavt-HQjfrvdTfak-unsplash.jpg","","","","","","","","","","","","","","","","","","","","","","","","","","","","","","","","","","","","","","","","","","","","","","","","","","","","","","","","","","","","","","","","",""
"","rating","","html-slider-response","14","95632","0.0-1.0-11.0","34","38808","Female","2961","","","","","28","9","39","Stimuli/Experimental_stims/objects/charlesdeluvio-1-nx1QR5dTE-unsplash.jpg","","","","","","","","","","","","","","","","","","","","","","","","","","","","","","","","","","","","","","","","","","","","","","","","","","","","","","","","","","","","","","","","",""
"","rating","","html-slider-response","15","100398","0.0-1.0-12.0","34","38808","Female","4747","","","","","79","10","11","Stimuli/Experimental_stims/outdoor_scenes/stephen-leonardi-gyIRjKPXupE-unsplash.jpg","","","","","","","","","","","","","","","","","","","","","","","","","","","","","","","","","","","","","","","","","","","","","","","","","","","","","","","","","","","","","","","","",""
"","rating","","html-slider-response","16","103665","0.0-1.0-13.0","34","38808","Female","3242","","","","","22","11","16","Stimuli/Experimental_stims/faces/freddy-kearney-o-ioeoATbIM-unsplash.jpg","","","","","","","","","","","","","","","","","","","","","","","","","","","","","","","","","","","","","","","","","","","","","","","","","","","","","","","","","","","","","","","","",""
"","rating","","html-slider-response","17","107010","0.0-1.0-14.0","34","38808","Female","3326","","","","","79","12","46","Stimuli/Experimental_stims/objects/mockup-graphics-PNsj6RiHAF4-unsplash.jpg","","","","","","","","","","","","","","","","","","","","","","","","","","","","","","","","","","","","","","","","","","","","","","","","","","","","","","","","","","","","","","","","",""
"","rating","","html-slider-response","18","110555","0.0-1.0-15.0","34","38808","Female","3530","","","","","43","13","20","Stimuli/Experimental_stims/faces/justin-chen-J7Cf1Gch49E-unsplash.jpg","","","","","","","","","","","","","","","","","","","","","","","","","","","","","","","","","","","","","","","","","","","","","","","","","","","","","","","","","","","","","","","","",""
"","rating","","html-slider-response","19","113373","0.0-1.0-16.0","34","38808","Female","2799","","","","","82","14","18","Stimuli/Experimental_stims/faces/jessica-radanavong-mrYkTuAesKE-unsplash.jpg","","","","","","","","","","","","","","","","","","","","","","","","","","","","","","","","","","","","","","","","","","","","","","","","","","","","","","","","","","","","","","","","",""
"","rating","","html-slider-response","20","116543","0.0-1.0-17.0","34","38808","Female","3157","","","","","18","15","42","Stimuli/Experimental_stims/objects/jess-bailey-nOeVi8DsN8U-unsplash.jpg","","","","","","","","","","","","","","","","","","","","","","","","","","","","","","","","","","","","","","","","","","","","","","","","","","","","","","","","","","","","","","","","",""
"","rating","","html-slider-response","21","119091","0.0-1.0-18.0","34","38808","Female","2529","","","","","67","16","5","Stimuli/Experimental_stims/outdoor_scenes/jeff-king-bJHWJeiHfHc-unsplash.jpg","","","","","","","","","","","","","","","","","","","","","","","","","","","","","","","","","","","","","","","","","","","","","","","","","","","","","","","","","","","","","","","","",""
"","rating","","html-slider-response","22","131217","0.0-1.0-19.0","34","38808","Female","12102","","","","","71","17","25","Stimuli/Experimental_stims/body_parts/engin-akyurt-Q2rfH3GW39c-unsplash.jpg","","","","","","","","","","","","","","","","","","","","","","","","","","","","","","","","","","","","","","","","","","","","","","","","","","","","","","","","","","","","","","","","",""
"","rating","","html-slider-response","23","134977","0.0-1.0-20.0","34","38808","Female","3741","","","","","29","18","29","Stimuli/Experimental_stims/body_parts/manuel-schinner-ZwjFuJ7ebpk-unsplash.jpg","","","","","","","","","","","","","","","","","","","","","","","","","","","","","","","","","","","","","","","","","","","","","","","","","","","","","","","","","","","","","","","","",""
"","rating","","html-slider-response","24","137908","0.0-1.0-21.0","34","38808","Female","2914","","","","","75","19","47","Stimuli/Experimental_stims/objects/ronaldo-arthur-vidal-Cdz_lvnl37k-unsplash.jpg","","","","","","","","","","","","","","","","","","","","","","","","","","","","","","","","","","","","","","","","","","","","","","","","","","","","","","","","","","","","","","","","",""
"","rating","","html-slider-response","25","141130","0.0-1.0-22.0","34","38808","Female","3197","","","","","25","20","4","Stimuli/Experimental_stims/outdoor_scenes/jarrett-kow-1ZOyYPOBn7I-unsplash.jpg","","","","","","","","","","","","","","","","","","","","","","","","","","","","","","","","","","","","","","","","","","","","","","","","","","","","","","","","","","","","","","","","",""
"","rating","","html-slider-response","26","144055","0.0-1.0-23.0","34","38808","Female","2910","","","","","86","21","31","Stimuli/Experimental_stims/body_parts/sincerely-media-VN6DbKajo5s-unsplash.jpg","","","","","","","","","","","","","","","","","","","","","","","","","","","","","","","","","","","","","","","","","","","","","","","","","","","","","","","","","","","","","","","","",""
"","rating","","html-slider-response","27","154334","0.0-1.0-24.0","34","38808","Female","10246","","","","","86","22","44","Stimuli/Experimental_stims/objects/kuiye-chen-NuOGFo4PudE-unsplash.jpg","","","","","","","","","","","","","","","","","","","","","","","","","","","","","","","","","","","","","","","","","","","","","","","","","","","","","","","","","","","","","","","","",""
"","rating","","html-slider-response","28","157177","0.0-1.0-25.0","34","38808","Female","2823","","","","","39","23","37","Stimuli/Experimental_stims/objects/alexander-andrews-VLGWE_SumrA-unsplash.jpg","","","","","","","","","","","","","","","","","","","","","","","","","","","","","","","","","","","","","","","","","","","","","","","","","","","","","","","","","","","","","","","","",""
"","rating","","html-slider-response","29","534446","0.0-1.0-26.0","34","38808","Female","377258","","","","","70","24","10","Stimuli/Experimental_stims/outdoor_scenes/shannon-kunkle-dM8INmkyDas-unsplash.jpg","","","","","","","","","","","","","","","","","","","","","","","","","","","","","","","","","","","","","","","","","","","","","","","","","","","","","","","","","","","","","","","","",""
"","rating","","html-slider-response","30","537988","0.0-1.0-27.0","34","38808","Female","3526","","","","","28","25","40","Stimuli/Experimental_stims/objects/fabian-blank-pElSkGRA2NU-unsplash.jpg","","","","","","","","","","","","","","","","","","","","","","","","","","","","","","","","","","","","","","","","","","","","","","","","","","","","","","","","","","","","","","","","",""
"","rating","","html-slider-response","31","541123","0.0-1.0-28.0","34","38808","Female","3119","","","","","70","26","9","Stimuli/Experimental_stims/outdoor_scenes/sergey-pesterev-y-b_FOmJXdg-unsplash.jpg","","","","","","","","","","","","","","","","","","","","","","","","","","","","","","","","","","","","","","","","","","","","","","","","","","","","","","","","","","","","","","","","",""
"","rating","","html-slider-response","32","545661","0.0-1.0-29.0","34","38808","Female","4521","","","","","27","27","41","Stimuli/Experimental_stims/objects/insung-yoon-w2JtIQQXoRU-unsplash.jpg","","","","","","","","","","","","","","","","","","","","","","","","","","","","","","","","","","","","","","","","","","","","","","","","","","","","","","","","","","","","","","","","",""
"","rating","","html-slider-response","33","549864","0.0-1.0-30.0","34","38808","Female","4183","","","","","76","28","8","Stimuli/Experimental_stims/outdoor_scenes/samsommer-vddccTqwal8-unsplash.jpg","","","","","","","","","","","","","","","","","","","","","","","","","","","","","","","","","","","","","","","","","","","","","","","","","","","","","","","","","","","","","","","","",""
"","rating","","html-slider-response","34","552819","0.0-1.0-31.0","34","38808","Female","2938","","","","","73","29","3","Stimuli/Experimental_stims/outdoor_scenes/henry-be-NLF6hTe4PAg-unsplash.jpg","","","","","","","","","","","","","","","","","","","","","","","","","","","","","","","","","","","","","","","","","","","","","","","","","","","","","","","","","","","","","","","","",""
"","rating","","html-slider-response","35","556084","0.0-1.0-32.0","34","38808","Female","3250","","","","","31","30","27","Stimuli/Experimental_stims/body_parts/heike-mintel-i_Gns0ELnLw-unsplash.jpg","","","","","","","","","","","","","","","","","","","","","","","","","","","","","","","","","","","","","","","","","","","","","","","","","","","","","","","","","","","","","","","","",""
"","rating","","html-slider-response","36","558764","0.0-1.0-33.0","34","38808","Female","2668","","","","","76","31","19","Stimuli/Experimental_stims/faces/joel-mott-LaK153ghdig-unsplash.jpg","","","","","","","","","","","","","","","","","","","","","","","","","","","","","","","","","","","","","","","","","","","","","","","","","","","","","","","","","","","","","","","","",""
"","rating","","html-slider-response","37","561545","0.0-1.0-34.0","34","38808","Female","2760","","","","","28","32","45","Stimuli/Experimental_stims/objects/leohoho-rngTKHXumy0-unsplash.jpg","","","","","","","","","","","","","","","","","","","","","","","","","","","","","","","","","","","","","","","","","","","","","","","","","","","","","","","","","","","","","","","","",""
"","rating","","html-slider-response","38","565154","0.0-1.0-35.0","34","38808","Female","3589","","","","","11","33","30","Stimuli/Experimental_stims/body_parts/mika-korhonen-Xodzxosar18-unsplash.jpg","","","","","","","","","","","","","","","","","","","","","","","","","","","","","","","","","","","","","","","","","","","","","","","","","","","","","","","","","","","","","","","","",""
"","rating","","html-slider-response","39","568109","0.0-1.0-36.0","34","38808","Female","2932","","","","","18","34","21","Stimuli/Experimental_stims/faces/leilani-angel-K84vnnzxmTQ-unsplash.jpg","","","","","","","","","","","","","","","","","","","","","","","","","","","","","","","","","","","","","","","","","","","","","","","","","","","","","","","","","","","","","","","","",""
"","rating","","html-slider-response","40","570963","0.0-1.0-37.0","34","38808","Female","2841","","","","","24","35","34","Stimuli/Experimental_stims/body_parts/wagner-santos-mBWMvIuVnso-unsplash.jpg","","","","","","","","","","","","","","","","","","","","","","","","","","","","","","","","","","","","","","","","","","","","","","","","","","","","","","","","","","","","","","","","",""
"","rating","","html-slider-response","41","573606","0.0-1.0-38.0","34","38808","Female","2626","","","","","33","36","35","Stimuli/Experimental_stims/body_parts/wc-so-KH4AAPjb-tI-unsplash.jpg","","","","","","","","","","","","","","","","","","","","","","","","","","","","","","","","","","","","","","","","","","","","","","","","","","","","","","","","","","","","","","","","",""
"","rating","","html-slider-response","42","576577","0.0-1.0-39.0","34","38808","Female","2949","","","","","5","37","15","Stimuli/Experimental_stims/faces/erik-lucatero-d2MSDujJl2g-unsplash.jpg","","","","","","","","","","","","","","","","","","","","","","","","","","","","","","","","","","","","","","","","","","","","","","","","","","","","","","","","","","","","","","","","",""
"","rating","","html-slider-response","43","579421","0.0-1.0-40.0","34","38808","Female","2827","","","","","41","38","1","Stimuli/Experimental_stims/outdoor_scenes/ashim-d-silva-S2Q5mdOrrVc-unsplash.jpg","","","","","","","","","","","","","","","","","","","","","","","","","","","","","","","","","","","","","","","","","","","","","","","","","","","","","","","","","","","","","","","","",""
"","rating","","html-slider-response","44","583286","0.0-1.0-41.0","34","38808","Female","3856","","","","","4","39","22","Stimuli/Experimental_stims/faces/ravi-patel-VMGAbeeJTKo-unsplash.jpg","","","","","","","","","","","","","","","","","","","","","","","","","","","","","","","","","","","","","","","","","","","","","","","","","","","","","","","","","","","","","","","","",""
"","rating","","html-slider-response","45","586071","0.0-1.0-42.0","34","38808","Female","2763","","","","","25","40","26","Stimuli/Experimental_stims/body_parts/engin-akyurt-x_3gyC42btc-unsplash.jpg","","","","","","","","","","","","","","","","","","","","","","","","","","","","","","","","","","","","","","","","","","","","","","","","","","","","","","","","","","","","","","","","",""
"","rating","","html-slider-response","46","591174","0.0-1.0-43.0","34","38808","Female","5091","","","","","39","41","0","Stimuli/Experimental_stims/outdoor_scenes/aleksandra-boguslawska-MS7KD9Ti7FQ-unsplash.jpg","","","","","","","","","","","","","","","","","","","","","","","","","","","","","","","","","","","","","","","","","","","","","","","","","","","","","","","","","","","","","","","","",""
"","rating","","html-slider-response","47","595170","0.0-1.0-44.0","34","38808","Female","3982","","","","","2","42","43","Stimuli/Experimental_stims/objects/jonathan-greenaway-Y4hGgeiFn3s-unsplash.jpg","","","","","","","","","","","","","","","","","","","","","","","","","","","","","","","","","","","","","","","","","","","","","","","","","","","","","","","","","","","","","","","","",""
"","rating","","html-slider-response","48","598690","0.0-1.0-45.0","34","38808","Female","3505","","","","","13","43","32","Stimuli/Experimental_stims/body_parts/towfiqu-barbhuiya-3AsiVDsZnHg-unsplash.jpg","","","","","","","","","","","","","","","","","","","","","","","","","","","","","","","","","","","","","","","","","","","","","","","","","","","","","","","","","","","","","","","","",""
"","rating","","html-slider-response","49","602401","0.0-1.0-46.0","34","38808","Female","3696","","","","","6","44","17","Stimuli/Experimental_stims/faces/good-faces-xmSWVeGEnJw-unsplash.jpg","","","","","","","","","","","","","","","","","","","","","","","","","","","","","","","","","","","","","","","","","","","","","","","","","","","","","","","","","","","","","","","","",""
"","rating","","html-slider-response","50","633566","0.0-1.0-47.0","34","38808","Female","31136","","","","","8","45","6","Stimuli/Experimental_stims/outdoor_scenes/meng-ji-8BH_M-53CyA-unsplash.jpg","","","","","","","","","","","","","","","","","","","","","","","","","","","","","","","","","","","","","","","","","","","","","","","","","","","","","","","","","","","","","","","","",""
"","rating","","html-slider-response","51","637126","0.0-1.0-48.0","34","38808","Female","3540","","","","","90","46","33","Stimuli/Experimental_stims/body_parts/tucker-good-36skLT5jZcc-unsplash.jpg","","","","","","","","","","","","","","","","","","","","","","","","","","","","","","","","","","","","","","","","","","","","","","","","","","","","","","","","","","","","","","","","",""
"","rating","","html-slider-response","52","640053","0.0-1.0-49.0","34","38808","Female","2905","","","","","24","47","12","Stimuli/Experimental_stims/faces/aiony-haust-jmATI5Q_YgY-unsplash.jpg","","","","","","","","","","","","","","","","","","","","","","","","","","","","","","","","","","","","","","","","","","","","","","","","","","","","","","","","","","","","","","","","",""
"","localizer_instructions","","instructions","53","700148","0.0-2.0-0.0-0.0","34","38808","Female","59987","","[{""page_index"":0,""viewing_time"":39781},{""page_index"":1,""viewing_time"":14005},{""page_index"":2,""viewing_time"":6201}]","","","","","","","","","","","","","","","","","","","","","","","","","","","","","","","","","","","","","","","","","","","","","","","","","","","","","","","","","","","","","","","","","","","","","","",""
"","localizer_comprehension_check","","survey-multi-choice","54","723435","0.0-2.0-0.0-1.0","34","38808","Female","23258","{""Q0"":""True"",""Q1"":""K"",""Q2"":""D""}","","0","","","","","","","","","","","","","","","","","","","","","","","","","","","","","","","","","","","","","","","","","","","","","","","","","","","","","","","","","","","","","","","","","","","","","",""
"","","","html-keyboard-response","55","727894","0.0-2.0-1.0","34","38808","Female","4442","","","","68","","","","","","","","","","","","","","","","","","","","","","","","","","","","","","","","","","","","","","","","","","","","","","","","","","","","","","","","","","","","","","","","","","","","",""
"","localizer","","html-keyboard-response","56","728309","0.0-2.0-2.0-0.0","34","38808","Female","NaN","","","","null","NaN","0","","Stimuli/Practice_stims/Localizer/annie-spratt-g9KFpAfQ5bc-unsplash.jpg","727894","0","NaN","","0","1","0","400","0","415","0","","","","","","","","","","","","","","","","","","","","","","","","","","","","","","","","","","","","","","","","","","","","","","","","","","","","","",""
"","iti_localizer","","html-keyboard-response","57","728620","0.0-2.0-2.0-1.0","34","38808","Female","null","","","","null","","0","","","728309","0","","","","","","300","400","311","415","300","","","","","","","","","","","","","","","","","","","","","","","","","","","","","","","","","","","","","","","","","","","","","","","","","","","","",""
"","localizer","","html-keyboard-response","58","729032","0.0-2.0-2.1-0.1","34","38808","Female","NaN","","","","null","NaN","0","","Stimuli/Practice_stims/Localizer/annie-spratt-g9KFpAfQ5bc-unsplash.jpg","728620","0","NaN","","0","1","0","400","700","412","726","","","","","","","","","","","","","","","","","","","","","","","","","","","","","","","","","","","","","","","","","","","","","","","","","","","","","",""
"","iti_localizer","","html-keyboard-response","59","729342","0.0-2.0-2.1-1.1","34","38808","Female","null","","","","null","","0","","","729032","0","","","","","","300","1100","310","1138","300","","","","","","","","","","","","","","","","","","","","","","","","","","","","","","","","","","","","","","","","","","","","","","","","","","","","",""
"","localizer","","html-keyboard-response","60","729753","0.0-2.0-2.2-0.2","34","38808","Female","NaN","","","","null","NaN","0","","Stimuli/Practice_stims/Localizer/annie-spratt-g9KFpAfQ5bc-unsplash.jpg","729342","0","NaN","","0","1","0","400","1400","411","1448","","","","","","","","","","","","","","","","","","","","","","","","","","","","","","","","","","","","","","","","","","","","","","","","","","","","","",""
"","iti_localizer","","html-keyboard-response","61","730063","0.0-2.0-2.2-1.2","34","38808","Female","null","","","","null","","0","","","729753","0","","","","","","300","1800","310","1859","300","","","","","","","","","","","","","","","","","","","","","","","","","","","","","","","","","","","","","","","","","","","","","","","","","","","","",""
"","localizer","","html-keyboard-response","62","730474","0.0-2.0-2.3-0.3","34","38808","Female","NaN","","","","null","NaN","0","","Stimuli/Practice_stims/Localizer/annie-spratt-g9KFpAfQ5bc-unsplash.jpg","730063","0","NaN","","0","1","0","400","2100","411","2169","","","","","","","","","","","","","","","","","","","","","","","","","","","","","","","","","","","","","","","","","","","","","","","","","","","","","",""
"","iti_localizer","","html-keyboard-response","63","730784","0.0-2.0-2.3-1.3","34","38808","Female","null","","","","null","","0","","","730474","0","","","","","","300","2500","310","2580","300","","","","","","","","","","","","","","","","","","","","","","","","","","","","","","","","","","","","","","","","","","","","","","","","","","","","",""
"","localizer","","html-keyboard-response","64","731197","0.0-2.0-2.4-0.4","34","38808","Female","NaN","","","","null","NaN","0","","Stimuli/Practice_stims/Localizer/annie-spratt-g9KFpAfQ5bc-unsplash.jpg","730784","0","NaN","","0","1","0","400","2800","413","2890","","","","","","","","","","","","","","","","","","","","","","","","","","","","","","","","","","","","","","","","","","","","","","","","","","","","","",""
"","iti_localizer","","html-keyboard-response","65","731510","0.0-2.0-2.4-1.4","34","38808","Female","null","","","","null","","0","","","731197","0","","","","","","300","3200","313","3303","300","","","","","","","","","","","","","","","","","","","","","","","","","","","","","","","","","","","","","","","","","","","","","","","","","","","","",""
"","localizer","","html-keyboard-response","66","731923","0.0-2.0-2.5-0.5","34","38808","Female","NaN","","","","null","NaN","0","","Stimuli/Practice_stims/Localizer/annie-spratt-g9KFpAfQ5bc-unsplash.jpg","731510","0","NaN","","0","1","0","400","3500","413","3616","","","","","","","","","","","","","","","","","","","","","","","","","","","","","","","","","","","","","","","","","","","","","","","","","","","","","",""
"","iti_localizer","","html-keyboard-response","67","732235","0.0-2.0-2.5-1.5","34","38808","Female","null","","","","null","","0","","","731923","0","","","","","","300","3900","312","4029","300","","","","","","","","","","","","","","","","","","","","","","","","","","","","","","","","","","","","","","","","","","","","","","","","","","","","",""
"","localizer","","html-keyboard-response","68","732648","0.0-2.0-2.6-0.6","34","38808","Female","NaN","","","","null","NaN","0","","Stimuli/Practice_stims/Localizer/annie-spratt-g9KFpAfQ5bc-unsplash.jpg","732235","0","NaN","","0","1","0","400","4200","413","4341","","","","","","","","","","","","","","","","","","","","","","","","","","","","","","","","","","","","","","","","","","","","","","","","","","","","","",""
"","iti_localizer","","html-keyboard-response","69","732960","0.0-2.0-2.6-1.6","34","38808","Female","null","","","","null","","0","","","732648","0","","","","","","300","4600","312","4754","300","","","","","","","","","","","","","","","","","","","","","","","","","","","","","","","","","","","","","","","","","","","","","","","","","","","","",""
"","localizer","","html-keyboard-response","70","733374","0.0-2.0-2.7-0.7","34","38808","Female","NaN","","","","null","NaN","0","","Stimuli/Practice_stims/Localizer/annie-spratt-g9KFpAfQ5bc-unsplash.jpg","732960","0","NaN","","0","1","0","400","4900","414","5066","","","","","","","","","","","","","","","","","","","","","","","","","","","","","","","","","","","","","","","","","","","","","","","","","","","","","",""
"","iti_localizer","","html-keyboard-response","71","733704","0.0-2.0-2.7-1.7","34","38808","Female","null","","","","null","","0","","","733374","0","","","","","","300","5300","330","5480","300","","","","","","","","","","","","","","","","","","","","","","","","","","","","","","","","","","","","","","","","","","","","","","","","","","","","",""
"","localizer","","html-keyboard-response","72","734118","0.0-2.0-2.8-0.8","34","38808","Female","NaN","","","","null","NaN","0","","Stimuli/Practice_stims/Localizer/annie-spratt-g9KFpAfQ5bc-unsplash.jpg","733704","0","NaN","","0","1","0","400","5600","414","5810","","","","","","","","","","","","","","","","","","","","","","","","","","","","","","","","","","","","","","","","","","","","","","","","","","","","","",""
"","iti_localizer","","html-keyboard-response","73","734429","0.0-2.0-2.8-1.8","34","38808","Female","null","","","","null","","0","","","734118","0","","","","","","300","6000","311","6224","300","","","","","","","","","","","","","","","","","","","","","","","","","","","","","","","","","","","","","","","","","","","","","","","","","","","","",""
"","localizer","","html-keyboard-response","74","734840","0.0-2.0-2.9-0.9","34","38808","Female","17","","","","75","1","0","","Stimuli/Practice_stims/Localizer/annie-spratt-g9KFpAfQ5bc-unsplash.jpg","734429","0","NaN","","0","0","0","400","6300","411","6535","","","","","","","","","","","","","","","","","","","","","","","","","","","","","","","","","","","","","","","","","","","","","","","","","","","","","",""
"","iti_localizer","","html-keyboard-response","75","735151","0.0-2.0-2.9-1.9","34","38808","Female","null","","","","null","","0","","","734840","0","","","","","","300","6700","311","6946","300","","","","","","","","","","","","","","","","","","","","","","","","","","","","","","","","","","","","","","","","","","","","","","","","","","","","",""
"","localizer","","html-keyboard-response","76","735561","0.0-2.0-3.0-0.0","34","38808","Female","327","","","","68","0","1","","Stimuli/Practice_stims/Localizer/becca-tapert-sY5RjMB1KkE-unsplash.jpg","735151","0","NaN","","0","0","1","400","7000","410","7257","","","","","","","","","","","","","","","","","","","","","","","","","","","","","","","","","","","","","","","","","","","","","","","","","","","","","",""
"","iti_localizer","","html-keyboard-response","77","735869","0.0-2.0-3.0-1.0","34","38808","Female","null","","","","null","","1","","","735561","0","","","","","","300","7400","308","7667","300","","","","","","","","","","","","","","","","","","","","","","","","","","","","","","","","","","","","","","","","","","","","","","","","","","","","",""
"","localizer","","html-keyboard-response","78","736278","0.0-2.0-4.0-0.0","34","38808","Female","NaN","","","","null","NaN","2","","Stimuli/Practice_stims/Localizer/charl-durand-bsfXvI25iNg-unsplash.jpg","735869","0","NaN","","1","1","0","400","7700","409","7975","","","","","","","","","","","","","","","","","","","","","","","","","","","","","","","","","","","","","","","","","","","","","","","","","","","","","",""
"","iti_localizer","","html-keyboard-response","79","736586","0.0-2.0-4.0-1.0","34","38808","Female","null","","","","null","","2","","","736278","0","","","","","","300","8100","308","8384","300","","","","","","","","","","","","","","","","","","","","","","","","","","","","","","","","","","","","","","","","","","","","","","","","","","","","",""
"","localizer","","html-keyboard-response","80","736999","0.0-2.0-4.1-0.1","34","38808","Female","NaN","","","","null","NaN","2","","Stimuli/Practice_stims/Localizer/charl-durand-bsfXvI25iNg-unsplash.jpg","736586","0","NaN","","1","1","0","400","8400","413","8692","","","","","","","","","","","","","","","","","","","","","","","","","","","","","","","","","","","","","","","","","","","","","","","","","","","","","",""
"","iti_localizer","","html-keyboard-response","81","737312","0.0-2.0-4.1-1.1","34","38808","Female","null","","","","null","","2","","","736999","0","","","","","","300","8800","313","9105","300","","","","","","","","","","","","","","","","","","","","","","","","","","","","","","","","","","","","","","","","","","","","","","","","","","","","",""
"","localizer","","html-keyboard-response","82","737721","0.0-2.0-4.2-0.2","34","38808","Female","20","","","","75","1","2","","Stimuli/Practice_stims/Localizer/charl-durand-bsfXvI25iNg-unsplash.jpg","737312","0","NaN","","1","0","1","400","9100","409","9418","","","","","","","","","","","","","","","","","","","","","","","","","","","","","","","","","","","","","","","","","","","","","","","","","","","","","",""
"","iti_localizer","","html-keyboard-response","83","738033","0.0-2.0-4.2-1.2","34","38808","Female","null","","","","null","","2","","","737721","0","","","","","","300","9500","312","9827","300","","","","","","","","","","","","","","","","","","","","","","","","","","","","","","","","","","","","","","","","","","","","","","","","","","","","",""
"","localizer","","html-keyboard-response","84","738441","0.0-2.0-5.0-0.0","34","38808","Female","92","","","","68","0","3","","Stimuli/Practice_stims/Localizer/nizar-albusaidy-B2r2SWAf5CE-unsplash.jpg","738033","0","NaN","","0","0","1","400","9800","408","10139","","","","","","","","","","","","","","","","","","","","","","","","","","","","","","","","","","","","","","","","","","","","","","","","","","","","","",""
"","iti_localizer","","html-keyboard-response","85","738752","0.0-2.0-5.0-1.0","34","38808","Female","null","","","","null","","3","","","738441","0","","","","","","300","10200","311","10547","300","","","","","","","","","","","","","","","","","","","","","","","","","","","","","","","","","","","","","","","","","","","","","","","","","","","","",""
"","localizer","","html-keyboard-response","86","739178","0.0-2.0-6.0-0.0","34","38808","Female","40","","","","68","0","4","","Stimuli/Practice_stims/Localizer/randy-fath-epf1tdtIIkM-unsplash.jpg","738752","0","NaN","","1","0","0","400","10500","426","10858","","","","","","","","","","","","","","","","","","","","","","","","","","","","","","","","","","","","","","","","","","","","","","","","","","","","","",""
"","iti_localizer","","html-keyboard-response","87","739491","0.0-2.0-6.0-1.0","34","38808","Female","null","","","","null","","4","","","739178","0","","","","","","300","10900","313","11284","300","","","","","","","","","","","","","","","","","","","","","","","","","","","","","","","","","","","","","","","","","","","","","","","","","","","","",""
"","localizer","","html-keyboard-response","88","739901","0.0-2.0-7.0-0.0","34","38808","Female","242","","","","75","1","5","","Stimuli/Practice_stims/Localizer/yassine-khalfalli-adsQ9d_Cx0c-unsplash.jpg","739491","0","NaN","","0","0","0","400","11200","410","11597","","","","","","","","","","","","","","","","","","","","","","","","","","","","","","","","","","","","","","","","","","","","","","","","","","","","","",""
"","iti_localizer","","html-keyboard-response","89","740210","0.0-2.0-7.0-1.0","34","38808","Female","null","","","","null","","5","","","739901","0","","","","","","300","11600","309","12007","300","","","","","","","","","","","","","","","","","","","","","","","","","","","","","","","","","","","","","","","","","","","","","","","","","","","","",""
"","practice_over","","html-keyboard-response","90","740702","0.0-2.0-7.0-2.0-0.0","34","38808","Female","481","","","","68","","","","","","","","","","","","","","","","","","","","","","","","","","","","","","","","","","","","","","","","","","","","","","","","","","","","","","","","","","","","","","","","","","","","",""
"","start_run","","html-keyboard-response","91","742951","0.0-2.0-7.0-2.0-1.0","34","38808","Female","2238","","","","84","","","","","","","","","","","","","","","","","","","","","","","","","","","","","","","","","","","","","","","","","","","","","","","","","","","","","","","","","","","","","","","","","","","","",""
"","localizer","","html-keyboard-response","92","743366","0.0-2.0-8.0-0.0","34","38808","Female","NaN","","","","null","NaN","6","","Stimuli/Experimental_stims/localizer/faces/christina-wocintechchat-com-0Zx1bDv5BNY-unsplash.jpg","742951","1","faces","","0","1","0","400","0","415","0","","","","","","","","","","","","","","","","","","","","","","","","","","","","","","","","","","","","","","","","","","","","","","","","","","","","","",""
"","iti_localizer","","html-keyboard-response","93","743677","0.0-2.0-8.0-1.0","34","38808","Female","null","","","","null","","6","","","743366","1","","","","","","300","400","311","415","300","","","","","","","","","","","","","","","","","","","","","","","","","","","","","","","","","","","","","","","","","","","","","","","","","","","","",""
"","localizer","","html-keyboard-response","94","744088","0.0-2.0-9.0-0.0","34","38808","Female","NaN","","","","null","NaN","7","","Stimuli/Experimental_stims/localizer/faces/jeffery-erhunse-BQMZ5ligqps-unsplash.jpg","743677","1","faces","","0","1","0","400","700","411","726","","","","","","","","","","","","","","","","","","","","","","","","","","","","","","","","","","","","","","","","","","","","","","","","","","","","","",""
"","iti_localizer","","html-keyboard-response","95","744399","0.0-2.0-9.0-1.0","34","38808","Female","null","","","","null","","7","","","744088","1","","","","","","300","1100","311","1137","300","","","","","","","","","","","","","","","","","","","","","","","","","","","","","","","","","","","","","","","","","","","","","","","","","","","","",""
"","localizer","","html-keyboard-response","96","744814","0.0-2.0-10.0-0.0","34","38808","Female","395","","","","68","0","8","","Stimuli/Experimental_stims/localizer/faces/matheus-ferrero-W7b3eDUb_2I-unsplash.jpg","744399","1","faces","","0","0","1","400","1400","415","1448","","","","","","","","","","","","","","","","","","","","","","","","","","","","","","","","","","","","","","","","","","","","","","","","","","","","","",""
"","iti_localizer","","html-keyboard-response","97","745129","0.0-2.0-10.0-1.0","34","38808","Female","null","","","","null","","8","","","744814","1","","","","","","300","1800","315","1863","300","","","","","","","","","","","","","","","","","","","","","","","","","","","","","","","","","","","","","","","","","","","","","","","","","","","","",""
"","localizer","","html-keyboard-response","98","745542","0.0-2.0-11.0-0.0","34","38808","Female","1","","","","75","1","9","","Stimuli/Experimental_stims/localizer/faces/jurica-koletic-7YVZYZeITc8-unsplash.jpg","745129","1","faces","","1","0","1","400","2100","413","2178","","","","","","","","","","","","","","","","","","","","","","","","","","","","","","","","","","","","","","","","","","","","","","","","","","","","","",""
"","iti_localizer","","html-keyboard-response","99","745857","0.0-2.0-11.0-1.0","34","38808","Female","null","","","","null","","9","","","745542","1","","","","","","300","2500","315","2591","300","","","","","","","","","","","","","","","","","","","","","","","","","","","","","","","","","","","","","","","","","","","","","","","","","","","","",""
"","localizer","","html-keyboard-response","100","746268","0.0-2.0-12.0-0.0","34","38808","Female","312","","","","68","0","10","","Stimuli/Experimental_stims/localizer/faces/drew-hays-agGIKYs4mYs-unsplash.jpg","745857","1","faces","","0","0","1","400","2800","411","2906","","","","","","","","","","","","","","","","","","","","","","","","","","","","","","","","","","","","","","","","","","","","","","","","","","","","","",""
"","iti_localizer","","html-keyboard-response","101","746578","0.0-2.0-12.0-1.0","34","38808","Female","null","","","","null","","10","","","746268","1","","","","","","300","3200","310","3317","300","","","","","","","","","","","","","","","","","","","","","","","","","","","","","","","","","","","","","","","","","","","","","","","","","","","","",""
"","localizer","","html-keyboard-response","102","746988","0.0-2.0-13.0-0.0","34","38808","Female","NaN","","","","null","NaN","11","","Stimuli/Experimental_stims/localizer/faces/rui-silvestre-hAMJpesMeDE-unsplash.jpg","746578","1","faces","","0","1","0","400","3500","410","3627","","","","","","","","","","","","","","","","","","","","","","","","","","","","","","","","","","","","","","","","","","","","","","","","","","","","","",""
"","iti_localizer","","html-keyboard-response","103","747329","0.0-2.0-13.0-1.0","34","38808","Female","null","","","","null","","11","","","746988","1","","","","","","300","3900","341","4037","300","","","","","","","","","","","","","","","","","","","","","","","","","","","","","","","","","","","","","","","","","","","","","","","","","","","","",""
"","localizer","","html-keyboard-response","104","747740","0.0-2.0-14.0-0.0","34","38808","Female","NaN","","","","null","NaN","12","","Stimuli/Experimental_stims/localizer/faces/sean-kong--1B_y4wGs-s-unsplash.jpg","747329","1","faces","","0","1","0","400","4200","411","4378","","","","","","","","","","","","","","","","","","","","","","","","","","","","","","","","","","","","","","","","","","","","","","","","","","","","","",""
"","iti_localizer","","html-keyboard-response","105","748049","0.0-2.0-14.0-1.0","34","38808","Female","null","","","","null","","12","","","747740","1","","","","","","300","4600","309","4789","300","","","","","","","","","","","","","","","","","","","","","","","","","","","","","","","","","","","","","","","","","","","","","","","","","","","","",""
"","localizer","","html-keyboard-response","106","748459","0.0-2.0-15.0-0.0","34","38808","Female","NaN","","","","null","NaN","13","","Stimuli/Experimental_stims/localizer/faces/vince-fleming-j3lf-Jn6deo-unsplash.jpg","748049","1","faces","","0","1","0","400","4900","410","5098","","","","","","","","","","","","","","","","","","","","","","","","","","","","","","","","","","","","","","","","","","","","","","","","","","","","","",""
"","iti_localizer","","html-keyboard-response","107","748776","0.0-2.0-15.0-1.0","34","38808","Female","null","","","","null","","13","","","748459","1","","","","","","300","5300","317","5508","300","","","","","","","","","","","","","","","","","","","","","","","","","","","","","","","","","","","","","","","","","","","","","","","","","","","","",""
"","localizer","","html-keyboard-response","108","749208","0.0-2.0-16.0-0.0","34","38808","Female","195","","","","68","0","14","","Stimuli/Experimental_stims/localizer/faces/tyler-nix-ZGa9d1a_4tA-unsplash.jpg","748776","1","faces","","0","0","1","400","5600","432","5825","","","","","","","","","","","","","","","","","","","","","","","","","","","","","","","","","","","","","","","","","","","","","","","","","","","","","",""
"","iti_localizer","","html-keyboard-response","109","749516","0.0-2.0-16.0-1.0","34","38808","Female","null","","","","null","","14","","","749208","1","","","","","","300","6000","308","6257","300","","","","","","","","","","","","","","","","","","","","","","","","","","","","","","","","","","","","","","","","","","","","","","","","","","","","",""
"","localizer","","html-keyboard-response","110","749930","0.0-2.0-17.0-0.0","34","38808","Female","397","","","","68","0","15","","Stimuli/Experimental_stims/localizer/faces/abstral-official-cyOKLSgkgCE-unsplash.jpg","749516","1","faces","","0","0","1","400","6300","414","6565","","","","","","","","","","","","","","","","","","","","","","","","","","","","","","","","","","","","","","","","","","","","","","","","","","","","","",""
"","iti_localizer","","html-keyboard-response","111","750247","0.0-2.0-17.0-1.0","34","38808","Female","null","","","","null","","15","","","749930","1","","","","","","300","6700","317","6979","300","","","","","","","","","","","","","","","","","","","","","","","","","","","","","","","","","","","","","","","","","","","","","","","","","","","","",""
"","localizer","","html-keyboard-response","112","750665","0.0-2.0-18.0-0.0","34","38808","Female","189","","","","75","1","16","","Stimuli/Experimental_stims/localizer/faces/ethan-haddox-__ng3cRXmFE-unsplash.jpg","750247","1","faces","","0","0","0","400","7000","418","7296","","","","","","","","","","","","","","","","","","","","","","","","","","","","","","","","","","","","","","","","","","","","","","","","","","","","","",""
"","iti_localizer","","html-keyboard-response","113","750979","0.0-2.0-18.0-1.0","34","38808","Female","null","","","","null","","16","","","750665","1","","","","","","300","7400","314","7714","300","","","","","","","","","","","","","","","","","","","","","","","","","","","","","","","","","","","","","","","","","","","","","","","","","","","","",""
"","localizer","","html-keyboard-response","114","751387","0.0-2.0-19.0-0.0","34","38808","Female","233","","","","68","0","17","","Stimuli/Experimental_stims/localizer/faces/foto-sushi-6anudmpILw4-unsplash.jpg","750979","1","faces","","0","0","1","400","7700","408","8028","","","","","","","","","","","","","","","","","","","","","","","","","","","","","","","","","","","","","","","","","","","","","","","","","","","","","",""
"","iti_localizer","","html-keyboard-response","115","751698","0.0-2.0-19.0-1.0","34","38808","Female","null","","","","null","","17","","","751387","1","","","","","","300","8100","311","8436","300","","","","","","","","","","","","","","","","","","","","","","","","","","","","","","","","","","","","","","","","","","","","","","","","","","","","",""
"","localizer","","html-keyboard-response","116","752107","0.0-2.0-20.0-0.0","34","38808","Female","330","","","","75","1","18","","Stimuli/Experimental_stims/localizer/faces/christian-ferrer-8vT-DgHZDG4-unsplash.jpg","751698","1","faces","","0","0","0","400","8400","409","8747","","","","","","","","","","","","","","","","","","","","","","","","","","","","","","","","","","","","","","","","","","","","","","","","","","","","","",""
"","iti_localizer","","html-keyboard-response","117","752423","0.0-2.0-20.0-1.0","34","38808","Female","null","","","","null","","18","","","752107","1","","","","","","300","8800","316","9156","300","","","","","","","","","","","","","","","","","","","","","","","","","","","","","","","","","","","","","","","","","","","","","","","","","","","","",""
"","localizer","","html-keyboard-response","118","752834","0.0-2.0-21.0-0.0","34","38808","Female","NaN","","","","null","NaN","19","","Stimuli/Experimental_stims/localizer/faces/stephanie-nakagawa-ADSKIn0ScDg-unsplash.jpg","752423","1","faces","","0","1","0","400","9100","411","9472","","","","","","","","","","","","","","","","","","","","","","","","","","","","","","","","","","","","","","","","","","","","","","","","","","","","","",""
"","iti_localizer","","html-keyboard-response","119","753147","0.0-2.0-21.0-1.0","34","38808","Female","null","","","","null","","19","","","752834","1","","","","","","300","9500","313","9883","300","","","","","","","","","","","","","","","","","","","","","","","","","","","","","","","","","","","","","","","","","","","","","","","","","","","","",""
"","localizer","","html-keyboard-response","120","753558","0.0-2.0-22.0-0.0","34","38808","Female","NaN","","","","null","NaN","20","","Stimuli/Experimental_stims/localizer/faces/toa-heftiba-2O1EUSTRBrY-unsplash.jpg","753147","1","faces","","1","1","0","400","9800","411","10196","","","","","","","","","","","","","","","","","","","","","","","","","","","","","","","","","","","","","","","","","","","","","","","","","","","","","",""
"","iti_localizer","","html-keyboard-response","121","753869","0.0-2.0-22.0-1.0","34","38808","Female","null","","","","null","","20","","","753558","1","","","","","","300","10200","311","10607","300","","","","","","","","","","","","","","","","","","","","","","","","","","","","","","","","","","","","","","","","","","","","","","","","","","","","",""
"","localizer","","html-keyboard-response","122","754281","0.0-2.0-23.0-0.0","34","38808","Female","NaN","","","","null","NaN","21","","Stimuli/Experimental_stims/localizer/faces/darshan-patel-QJEVpydulGs-unsplash.jpg","753869","1","faces","","0","1","0","400","10500","412","10918","","","","","","","","","","","","","","","","","","","","","","","","","","","","","","","","","","","","","","","","","","","","","","","","","","","","","",""
"","iti_localizer","","html-keyboard-response","123","754591","0.0-2.0-23.0-1.0","34","38808","Female","null","","","","null","","21","","","754281","1","","","","","","300","10900","310","11330","300","","","","","","","","","","","","","","","","","","","","","","","","","","","","","","","","","","","","","","","","","","","","","","","","","","","","",""
"","localizer","","html-keyboard-response","124","755008","0.0-2.0-24.0-0.0","34","38808","Female","42","","","","68","0","22","","Stimuli/Experimental_stims/localizer/faces/mubariz-mehdizadeh-o-wlIFT4zE4-unsplash.jpg","754591","1","faces","","0","0","1","400","11200","417","11640","","","","","","","","","","","","","","","","","","","","","","","","","","","","","","","","","","","","","","","","","","","","","","","","","","","","","",""
"","iti_localizer","","html-keyboard-response","125","755319","0.0-2.0-24.0-1.0","34","38808","Female","null","","","","null","","22","","","755008","1","","","","","","300","11600","311","12057","300","","","","","","","","","","","","","","","","","","","","","","","","","","","","","","","","","","","","","","","","","","","","","","","","","","","","",""
"","localizer","","html-keyboard-response","126","755731","0.0-2.0-25.0-0.0","34","38808","Female","31","","","","75","1","23","","Stimuli/Experimental_stims/localizer/faces/midas-hofstra-tidSLv-UaNs-unsplash.jpg","755319","1","faces","","0","0","0","400","11900","412","12368","","","","","","","","","","","","","","","","","","","","","","","","","","","","","","","","","","","","","","","","","","","","","","","","","","","","","",""
"","iti_localizer","","html-keyboard-response","127","756046","0.0-2.0-25.0-1.0","34","38808","Female","null","","","","null","","23","","","755731","1","","","","","","300","12300","315","12780","300","","","","","","","","","","","","","","","","","","","","","","","","","","","","","","","","","","","","","","","","","","","","","","","","","","","","",""
"","localizer","","html-keyboard-response","128","756458","0.0-2.0-26.0-0.0","34","38808","Female","318","","","","68","0","24","","Stimuli/Experimental_stims/localizer/faces/toa-heftiba-O3ymvT7Wf9U-unsplash.jpg","756046","1","faces","","0","0","1","400","12600","412","13095","","","","","","","","","","","","","","","","","","","","","","","","","","","","","","","","","","","","","","","","","","","","","","","","","","","","","",""
"","iti_localizer","","html-keyboard-response","129","756769","0.0-2.0-26.0-1.0","34","38808","Female","null","","","","null","","24","","","756458","1","","","","","","300","13000","311","13507","300","","","","","","","","","","","","","","","","","","","","","","","","","","","","","","","","","","","","","","","","","","","","","","","","","","","","",""
"","localizer","","html-keyboard-response","130","757211","0.0-2.0-27.0-0.0","34","38808","Female","305","","","","75","1","25","","Stimuli/Experimental_stims/localizer/faces/katsiaryna-endruszkiewicz-BteCp6aq4GI-unsplash.jpg","756769","1","faces","","0","0","0","400","13300","442","13818","","","","","","","","","","","","","","","","","","","","","","","","","","","","","","","","","","","","","","","","","","","","","","","","","","","","","",""
"","iti_localizer","","html-keyboard-response","131","771234","0.0-2.0-27.0-1.0","34","38808","Female","null","","","","null","","25","","","757211","1","","","","","","14000","13700","14023","14260","14000","","","","","","","","","","","","","","","","","","","","","","","","","","","","","","","","","","","","","","","","","","","","","","","","","","","","",""
"","localizer","","html-keyboard-response","132","771648","0.0-2.0-28.0-0.0","34","38808","Female","NaN","","","","null","NaN","26","","Stimuli/Experimental_stims/localizer/outdoor_scenes/jaanus-jagomagi-FddgewYQF2M-unsplash.jpg","771234","1","outdoor_scenes","","0","1","0","400","27700","414","28283","","","","","","","","","","","","","","","","","","","","","","","","","","","","","","","","","","","","","","","","","","","","","","","","","","","","","",""
"","iti_localizer","","html-keyboard-response","133","771958","0.0-2.0-28.0-1.0","34","38808","Female","null","","","","null","","26","","","771648","1","","","","","","300","28100","310","28697","300","","","","","","","","","","","","","","","","","","","","","","","","","","","","","","","","","","","","","","","","","","","","","","","","","","","","",""
"","localizer","","html-keyboard-response","134","772372","0.0-2.0-29.0-0.0","34","38808","Female","NaN","","","","null","NaN","27","","Stimuli/Experimental_stims/localizer/outdoor_scenes/v2osk-1Z2niiBPg5A-unsplash.jpg","771958","1","outdoor_scenes","","1","1","0","400","28400","414","29007","","","","","","","","","","","","","","","","","","","","","","","","","","","","","","","","","","","","","","","","","","","","","","","","","","","","","",""
"","iti_localizer","","html-keyboard-response","135","772682","0.0-2.0-29.0-1.0","34","38808","Female","null","","","","null","","27","","","772372","1","","","","","","300","28800","310","29421","300","","","","","","","","","","","","","","","","","","","","","","","","","","","","","","","","","","","","","","","","","","","","","","","","","","","","",""
"","localizer","","html-keyboard-response","136","773093","0.0-2.0-30.0-0.0","34","38808","Female","111","","","","68","0","28","","Stimuli/Experimental_stims/localizer/outdoor_scenes/wai-siew-mTFyV8oNDzU-unsplash.jpg","772682","1","outdoor_scenes","","0","0","1","400","29100","411","29731","","","","","","","","","","","","","","","","","","","","","","","","","","","","","","","","","","","","","","","","","","","","","","","","","","","","","",""
"","iti_localizer","","html-keyboard-response","137","773401","0.0-2.0-30.0-1.0","34","38808","Female","null","","","","null","","28","","","773093","1","","","","","","300","29500","308","30142","300","","","","","","","","","","","","","","","","","","","","","","","","","","","","","","","","","","","","","","","","","","","","","","","","","","","","",""
"","localizer","","html-keyboard-response","138","773812","0.0-2.0-31.0-0.0","34","38808","Female","244","","","","75","1","29","","Stimuli/Experimental_stims/localizer/outdoor_scenes/jay-cai-F_laX9E8CUo-unsplash.jpg","773401","1","outdoor_scenes","","0","0","0","400","29800","411","30450","","","","","","","","","","","","","","","","","","","","","","","","","","","","","","","","","","","","","","","","","","","","","","","","","","","","","",""
"","iti_localizer","","html-keyboard-response","139","774120","0.0-2.0-31.0-1.0","34","38808","Female","null","","","","null","","29","","","773812","1","","","","","","300","30200","308","30861","300","","","","","","","","","","","","","","","","","","","","","","","","","","","","","","","","","","","","","","","","","","","","","","","","","","","","",""
"","localizer","","html-keyboard-response","140","774532","0.0-2.0-32.0-0.0","34","38808","Female","205","","","","68","0","30","","Stimuli/Experimental_stims/localizer/outdoor_scenes/jeremy-cai-ucYWe5mzTMU-unsplash.jpg","774120","1","outdoor_scenes","","0","0","1","400","30500","412","31169","","","","","","","","","","","","","","","","","","","","","","","","","","","","","","","","","","","","","","","","","","","","","","","","","","","","","",""
"","iti_localizer","","html-keyboard-response","141","774845","0.0-2.0-32.0-1.0","34","38808","Female","null","","","","null","","30","","","774532","1","","","","","","300","30900","313","31581","300","","","","","","","","","","","","","","","","","","","","","","","","","","","","","","","","","","","","","","","","","","","","","","","","","","","","",""
"","localizer","","html-keyboard-response","142","775264","0.0-2.0-33.0-0.0","34","38808","Female","111","","","","75","1","31","","Stimuli/Experimental_stims/localizer/outdoor_scenes/erol-ahmed-d3pTF3r_hwY-unsplash.jpg","774845","1","outdoor_scenes","","0","0","0","400","31200","419","31894","","","","","","","","","","","","","","","","","","","","","","","","","","","","","","","","","","","","","","","","","","","","","","","","","","","","","",""
"","iti_localizer","","html-keyboard-response","143","775583","0.0-2.0-33.0-1.0","34","38808","Female","null","","","","null","","31","","","775264","1","","","","","","300","31600","319","32313","300","","","","","","","","","","","","","","","","","","","","","","","","","","","","","","","","","","","","","","","","","","","","","","","","","","","","",""
"","localizer","","html-keyboard-response","144","775996","0.0-2.0-34.0-0.0","34","38808","Female","2","","","","75","1","32","","Stimuli/Experimental_stims/localizer/outdoor_scenes/quino-al-vmZ2DehWQ3Q-unsplash.jpg","775583","1","outdoor_scenes","","0","0","0","400","31900","413","32632","","","","","","","","","","","","","","","","","","","","","","","","","","","","","","","","","","","","","","","","","","","","","","","","","","","","","",""
"","iti_localizer","","html-keyboard-response","145","776303","0.0-2.0-34.0-1.0","34","38808","Female","null","","","","null","","32","","","775996","1","","","","","","300","32300","307","33045","300","","","","","","","","","","","","","","","","","","","","","","","","","","","","","","","","","","","","","","","","","","","","","","","","","","","","",""
"","localizer","","html-keyboard-response","146","776720","0.0-2.0-35.0-0.0","34","38808","Female","49","","","","75","1","33","","Stimuli/Experimental_stims/localizer/outdoor_scenes/kenneth-thewissen-D76DklsG-5U-unsplash.jpg","776303","1","outdoor_scenes","","0","0","0","400","32600","417","33352","","","","","","","","","","","","","","","","","","","","","","","","","","","","","","","","","","","","","","","","","","","","","","","","","","","","","",""
"","iti_localizer","","html-keyboard-response","147","777031","0.0-2.0-35.0-1.0","34","38808","Female","null","","","","null","","33","","","776720","1","","","","","","300","33000","311","33769","300","","","","","","","","","","","","","","","","","","","","","","","","","","","","","","","","","","","","","","","","","","","","","","","","","","","","",""
"","localizer","","html-keyboard-response","148","777440","0.0-2.0-36.0-0.0","34","38808","Female","112","","","","75","1","34","","Stimuli/Experimental_stims/localizer/outdoor_scenes/johny-goerend-U_diPCXCBxU-unsplash.jpg","777031","1","outdoor_scenes","","0","0","0","400","33300","409","34080","","","","","","","","","","","","","","","","","","","","","","","","","","","","","","","","","","","","","","","","","","","","","","","","","","","","","",""
"","iti_localizer","","html-keyboard-response","149","777748","0.0-2.0-36.0-1.0","34","38808","Female","null","","","","null","","34","","","777440","1","","","","","","300","33700","308","34489","300","","","","","","","","","","","","","","","","","","","","","","","","","","","","","","","","","","","","","","","","","","","","","","","","","","","","",""
"","localizer","","html-keyboard-response","150","778160","0.0-2.0-37.0-0.0","34","38808","Female","169","","","","68","0","35","","Stimuli/Experimental_stims/localizer/outdoor_scenes/ken-cheung-KonWFWUaAuk-unsplash.jpg","777748","1","outdoor_scenes","","0","0","1","400","34000","412","34797","","","","","","","","","","","","","","","","","","","","","","","","","","","","","","","","","","","","","","","","","","","","","","","","","","","","","",""
"","iti_localizer","","html-keyboard-response","151","778472","0.0-2.0-37.0-1.0","34","38808","Female","null","","","","null","","35","","","778160","1","","","","","","300","34400","312","35209","300","","","","","","","","","","","","","","","","","","","","","","","","","","","","","","","","","","","","","","","","","","","","","","","","","","","","",""
"","localizer","","html-keyboard-response","152","778882","0.0-2.0-38.0-0.0","34","38808","Female","114","","","","68","0","36","","Stimuli/Experimental_stims/localizer/outdoor_scenes/alessio-furlan-Vw3a0HgE7AM-unsplash.jpg","778472","1","outdoor_scenes","","0","0","1","400","34700","410","35521","","","","","","","","","","","","","","","","","","","","","","","","","","","","","","","","","","","","","","","","","","","","","","","","","","","","","",""
"","iti_localizer","","html-keyboard-response","153","779199","0.0-2.0-38.0-1.0","34","38808","Female","null","","","","null","","36","","","778882","1","","","","","","300","35100","317","35931","300","","","","","","","","","","","","","","","","","","","","","","","","","","","","","","","","","","","","","","","","","","","","","","","","","","","","",""
"","localizer","","html-keyboard-response","154","779612","0.0-2.0-39.0-0.0","34","38808","Female","183","","","","75","1","37","","Stimuli/Experimental_stims/localizer/outdoor_scenes/ricardo-gomez-angel-dTSaC-S-7fs-unsplash.jpg","779199","1","outdoor_scenes","","0","0","0","400","35400","413","36248","","","","","","","","","","","","","","","","","","","","","","","","","","","","","","","","","","","","","","","","","","","","","","","","","","","","","",""
"","iti_localizer","","html-keyboard-response","155","779965","0.0-2.0-39.0-1.0","34","38808","Female","null","","","","null","","37","","","779612","1","","","","","","300","35800","353","36661","300","","","","","","","","","","","","","","","","","","","","","","","","","","","","","","","","","","","","","","","","","","","","","","","","","","","","",""
"","localizer","","html-keyboard-response","156","780376","0.0-2.0-40.0-0.0","34","38808","Female","63","","","","75","1","38","","Stimuli/Experimental_stims/localizer/outdoor_scenes/samuel-ferrara-IEHPDNk2-8w-unsplash.jpg","779965","1","outdoor_scenes","","0","0","0","400","36100","411","37014","","","","","","","","","","","","","","","","","","","","","","","","","","","","","","","","","","","","","","","","","","","","","","","","","","","","","",""
"","iti_localizer","","html-keyboard-response","157","780685","0.0-2.0-40.0-1.0","34","38808","Female","null","","","","null","","38","","","780376","1","","","","","","300","36500","309","37425","300","","","","","","","","","","","","","","","","","","","","","","","","","","","","","","","","","","","","","","","","","","","","","","","","","","","","",""
"","localizer","","html-keyboard-response","158","781095","0.0-2.0-41.0-0.0","34","38808","Female","NaN","","","","null","NaN","39","","Stimuli/Experimental_stims/localizer/outdoor_scenes/pietro-de-grandi-T7K4aEPoGGk-unsplash.jpg","780685","1","outdoor_scenes","","0","1","0","400","36800","410","37734","","","","","","","","","","","","","","","","","","","","","","","","","","","","","","","","","","","","","","","","","","","","","","","","","","","","","",""
"","iti_localizer","","html-keyboard-response","159","781406","0.0-2.0-41.0-1.0","34","38808","Female","null","","","","null","","39","","","781095","1","","","","","","300","37200","311","38144","300","","","","","","","","","","","","","","","","","","","","","","","","","","","","","","","","","","","","","","","","","","","","","","","","","","","","",""
"","localizer","","html-keyboard-response","160","781817","0.0-2.0-42.0-0.0","34","38808","Female","211","","","","68","0","40","","Stimuli/Experimental_stims/localizer/outdoor_scenes/tomasz-filipek-CUWC-6MRcNg-unsplash.jpg","781406","1","outdoor_scenes","","0","0","1","400","37500","411","38455","","","","","","","","","","","","","","","","","","","","","","","","","","","","","","","","","","","","","","","","","","","","","","","","","","","","","",""
"","iti_localizer","","html-keyboard-response","161","782129","0.0-2.0-42.0-1.0","34","38808","Female","null","","","","null","","40","","","781817","1","","","","","","300","37900","312","38866","300","","","","","","","","","","","","","","","","","","","","","","","","","","","","","","","","","","","","","","","","","","","","","","","","","","","","",""
"","localizer","","html-keyboard-response","162","782543","0.0-2.0-43.0-0.0","34","38808","Female","51","","","","68","0","41","","Stimuli/Experimental_stims/localizer/outdoor_scenes/cayetano-gil-rguHxZmOF5U-unsplash.jpg","782129","1","outdoor_scenes","","0","0","1","400","38200","414","39178","","","","","","","","","","","","","","","","","","","","","","","","","","","","","","","","","","","","","","","","","","","","","","","","","","","","","",""
"","iti_localizer","","html-keyboard-response","163","782856","0.0-2.0-43.0-1.0","34","38808","Female","null","","","","null","","41","","","782543","1","","","","","","300","38600","313","39592","300","","","","","","","","","","","","","","","","","","","","","","","","","","","","","","","","","","","","","","","","","","","","","","","","","","","","",""
"","localizer","","html-keyboard-response","164","783274","0.0-2.0-44.0-0.0","34","38808","Female","118","","","","75","1","42","","Stimuli/Experimental_stims/localizer/outdoor_scenes/nikola-majksner-hXNGeAFOgT4-unsplash.jpg","782856","1","outdoor_scenes","","0","0","0","400","38900","418","39905","","","","","","","","","","","","","","","","","","","","","","","","","","","","","","","","","","","","","","","","","","","","","","","","","","","","","",""
"","iti_localizer","","html-keyboard-response","165","783590","0.0-2.0-44.0-1.0","34","38808","Female","null","","","","null","","42","","","783274","1","","","","","","300","39300","316","40323","300","","","","","","","","","","","","","","","","","","","","","","","","","","","","","","","","","","","","","","","","","","","","","","","","","","","","",""
"","localizer","","html-keyboard-response","166","784000","0.0-2.0-45.0-0.0","34","38808","Female","53","","","","75","1","43","","Stimuli/Experimental_stims/localizer/outdoor_scenes/wil-stewart-pHANr-CpbYM-unsplash.jpg","783590","1","outdoor_scenes","","1","0","1","400","39600","410","40639","","","","","","","","","","","","","","","","","","","","","","","","","","","","","","","","","","","","","","","","","","","","","","","","","","","","","",""
"","iti_localizer","","html-keyboard-response","167","784308","0.0-2.0-45.0-1.0","34","38808","Female","null","","","","null","","43","","","784000","1","","","","","","300","40000","308","41049","300","","","","","","","","","","","","","","","","","","","","","","","","","","","","","","","","","","","","","","","","","","","","","","","","","","","","",""
"","localizer","","html-keyboard-response","168","784720","0.0-2.0-46.0-0.0","34","38808","Female","198","","","","68","0","44","","Stimuli/Experimental_stims/localizer/outdoor_scenes/chang-qing-2YQoKbyGvDc-unsplash.jpg","784308","1","outdoor_scenes","","0","0","1","400","40300","412","41357","","","","","","","","","","","","","","","","","","","","","","","","","","","","","","","","","","","","","","","","","","","","","","","","","","","","","",""
"","iti_localizer","","html-keyboard-response","169","785036","0.0-2.0-46.0-1.0","34","38808","Female","null","","","","null","","44","","","784720","1","","","","","","300","40700","316","41769","300","","","","","","","","","","","","","","","","","","","","","","","","","","","","","","","","","","","","","","","","","","","","","","","","","","","","",""
"","localizer","","html-keyboard-response","170","785448","0.0-2.0-47.0-0.0","34","38808","Female","208","","","","68","0","45","","Stimuli/Experimental_stims/localizer/outdoor_scenes/solotravelgoals-7kLufxYoqWk-unsplash.jpg","785036","1","outdoor_scenes","","0","0","1","400","41000","412","42085","","","","","","","","","","","","","","","","","","","","","","","","","","","","","","","","","","","","","","","","","","","","","","","","","","","","","",""
"","iti_localizer","","html-keyboard-response","171","799459","0.0-2.0-47.0-1.0","34","38808","Female","null","","","","null","","45","","","785448","1","","","","","","14000","41400","14011","42497","14000","","","","","","","","","","","","","","","","","","","","","","","","","","","","","","","","","","","","","","","","","","","","","","","","","","","","",""
"","localizer","","html-keyboard-response","172","799871","0.0-2.0-48.0-0.0","34","38808","Female","NaN","","","","null","NaN","46","","Stimuli/Experimental_stims/localizer/body_parts/jeremy-bishop-mLd3hAaH2ns-unsplash.jpg","799459","1","body_parts","","0","1","0","400","55400","412","56508","","","","","","","","","","","","","","","","","","","","","","","","","","","","","","","","","","","","","","","","","","","","","","","","","","","","","",""
"","iti_localizer","","html-keyboard-response","173","800182","0.0-2.0-48.0-1.0","34","38808","Female","null","","","","null","","46","","","799871","1","","","","","","300","55800","311","56920","300","","","","","","","","","","","","","","","","","","","","","","","","","","","","","","","","","","","","","","","","","","","","","","","","","","","","",""
"","localizer","","html-keyboard-response","174","800592","0.0-2.0-49.0-0.0","34","38808","Female","NaN","","","","null","NaN","47","","Stimuli/Experimental_stims/localizer/body_parts/lilartsy-1KkhQ8uL28g-unsplash.jpg","800182","1","body_parts","","0","1","0","400","56100","410","57231","","","","","","","","","","","","","","","","","","","","","","","","","","","","","","","","","","","","","","","","","","","","","","","","","","","","","",""
"","iti_localizer","","html-keyboard-response","175","800900","0.0-2.0-49.0-1.0","34","38808","Female","null","","","","null","","47","","","800592","1","","","","","","300","56500","308","57641","300","","","","","","","","","","","","","","","","","","","","","","","","","","","","","","","","","","","","","","","","","","","","","","","","","","","","",""
"","localizer","","html-keyboard-response","176","801313","0.0-2.0-50.0-0.0","34","38808","Female","NaN","","","","null","NaN","48","","Stimuli/Experimental_stims/localizer/body_parts/toa-heftiba-qxvWnfHb3-M-unsplash.jpg","800900","1","body_parts","","0","1","0","400","56800","413","57949","","","","","","","","","","","","","","","","","","","","","","","","","","","","","","","","","","","","","","","","","","","","","","","","","","","","","",""
"","iti_localizer","","html-keyboard-response","177","801621","0.0-2.0-50.0-1.0","34","38808","Female","null","","","","null","","48","","","801313","1","","","","","","300","57200","308","58362","300","","","","","","","","","","","","","","","","","","","","","","","","","","","","","","","","","","","","","","","","","","","","","","","","","","","","",""
"","localizer","","html-keyboard-response","178","802031","0.0-2.0-51.0-0.0","34","38808","Female","NaN","","","","null","NaN","49","","Stimuli/Experimental_stims/localizer/body_parts/callum-skelton-3KLMq7y46nA-unsplash.jpg","801621","1","body_parts","","1","1","0","400","57500","410","58670","","","","","","","","","","","","","","","","","","","","","","","","","","","","","","","","","","","","","","","","","","","","","","","","","","","","","",""
"","iti_localizer","","html-keyboard-response","179","802340","0.0-2.0-51.0-1.0","34","38808","Female","null","","","","null","","49","","","802031","1","","","","","","300","57900","309","59080","300","","","","","","","","","","","","","","","","","","","","","","","","","","","","","","","","","","","","","","","","","","","","","","","","","","","","",""
"","localizer","","html-keyboard-response","180","802750","0.0-2.0-52.0-0.0","34","38808","Female","NaN","","","","null","NaN","50","","Stimuli/Experimental_stims/localizer/body_parts/ant-rozetsky-bXQd8JXx0vs-unsplash.jpg","802340","1","body_parts","","0","1","0","400","58200","410","59389","","","","","","","","","","","","","","","","","","","","","","","","","","","","","","","","","","","","","","","","","","","","","","","","","","","","","",""
"","iti_localizer","","html-keyboard-response","181","803061","0.0-2.0-52.0-1.0","34","38808","Female","null","","","","null","","50","","","802750","1","","","","","","300","58600","311","59799","300","","","","","","","","","","","","","","","","","","","","","","","","","","","","","","","","","","","","","","","","","","","","","","","","","","","","",""
"","localizer","","html-keyboard-response","182","803472","0.0-2.0-53.0-0.0","34","38808","Female","NaN","","","","null","NaN","51","","Stimuli/Experimental_stims/localizer/body_parts/boyd-christiansen-uVj7kewrZ-o-unsplash.jpg","803061","1","body_parts","","0","1","0","400","58900","411","60110","","","","","","","","","","","","","","","","","","","","","","","","","","","","","","","","","","","","","","","","","","","","","","","","","","","","","",""
"","iti_localizer","","html-keyboard-response","183","803781","0.0-2.0-53.0-1.0","34","38808","Female","null","","","","null","","51","","","803472","1","","","","","","300","59300","309","60521","300","","","","","","","","","","","","","","","","","","","","","","","","","","","","","","","","","","","","","","","","","","","","","","","","","","","","",""
"","localizer","","html-keyboard-response","184","804194","0.0-2.0-54.0-0.0","34","38808","Female","NaN","","","","null","NaN","52","","Stimuli/Experimental_stims/localizer/body_parts/helen-ast-l2iY5Sh0mTg-unsplash.jpg","803781","1","body_parts","","0","1","0","400","59600","413","60830","","","","","","","","","","","","","","","","","","","","","","","","","","","","","","","","","","","","","","","","","","","","","","","","","","","","","",""
"","iti_localizer","","html-keyboard-response","185","804503","0.0-2.0-54.0-1.0","34","38808","Female","null","","","","null","","52","","","804194","1","","","","","","300","60000","309","61243","300","","","","","","","","","","","","","","","","","","","","","","","","","","","","","","","","","","","","","","","","","","","","","","","","","","","","",""
"","localizer","","html-keyboard-response","186","804917","0.0-2.0-55.0-0.0","34","38808","Female","NaN","","","","null","NaN","53","","Stimuli/Experimental_stims/localizer/body_parts/pure-julia-E9Q4bqYHtIM-unsplash.jpg","804503","1","body_parts","","0","1","0","400","60300","414","61552","","","","","","","","","","","","","","","","","","","","","","","","","","","","","","","","","","","","","","","","","","","","","","","","","","","","","",""
"","iti_localizer","","html-keyboard-response","187","805231","0.0-2.0-55.0-1.0","34","38808","Female","null","","","","null","","53","","","804917","1","","","","","","300","60700","314","61966","300","","","","","","","","","","","","","","","","","","","","","","","","","","","","","","","","","","","","","","","","","","","","","","","","","","","","",""
"","localizer","","html-keyboard-response","188","805639","0.0-2.0-56.0-0.0","34","38808","Female","NaN","","","","null","NaN","54","","Stimuli/Experimental_stims/localizer/body_parts/sina-rezakhani-d1gQi0Jl05U-unsplash (1).jpg","805231","1","body_parts","","0","1","0","400","61000","408","62280","","","","","","","","","","","","","","","","","","","","","","","","","","","","","","","","","","","","","","","","","","","","","","","","","","","","","",""
"","iti_localizer","","html-keyboard-response","189","805950","0.0-2.0-56.0-1.0","34","38808","Female","null","","","","null","","54","","","805639","1","","","","","","300","61400","311","62688","300","","","","","","","","","","","","","","","","","","","","","","","","","","","","","","","","","","","","","","","","","","","","","","","","","","","","",""
"","localizer","","html-keyboard-response","190","806361","0.0-2.0-57.0-0.0","34","38808","Female","NaN","","","","null","NaN","55","","Stimuli/Experimental_stims/localizer/body_parts/megan-menegay-UojxG_BJxnI-unsplash.jpg","805950","1","body_parts","","0","1","0","400","61700","411","62999","","","","","","","","","","","","","","","","","","","","","","","","","","","","","","","","","","","","","","","","","","","","","","","","","","","","","",""
"","iti_localizer","","html-keyboard-response","191","806669","0.0-2.0-57.0-1.0","34","38808","Female","null","","","","null","","55","","","806361","1","","","","","","300","62100","308","63410","300","","","","","","","","","","","","","","","","","","","","","","","","","","","","","","","","","","","","","","","","","","","","","","","","","","","","",""
"","localizer","","html-keyboard-response","192","807081","0.0-2.0-58.0-0.0","34","38808","Female","NaN","","","","null","NaN","56","","Stimuli/Experimental_stims/localizer/body_parts/sincerely-media-7TBFwUQA6Xk-unsplash.jpg","806669","1","body_parts","","0","1","0","400","62400","412","63718","","","","","","","","","","","","","","","","","","","","","","","","","","","","","","","","","","","","","","","","","","","","","","","","","","","","","",""
"","iti_localizer","","html-keyboard-response","193","807393","0.0-2.0-58.0-1.0","34","38808","Female","null","","","","null","","56","","","807081","1","","","","","","300","62800","312","64130","300","","","","","","","","","","","","","","","","","","","","","","","","","","","","","","","","","","","","","","","","","","","","","","","","","","","","",""
"","localizer","","html-keyboard-response","194","807804","0.0-2.0-59.0-0.0","34","38808","Female","NaN","","","","null","NaN","57","","Stimuli/Experimental_stims/localizer/body_parts/sincerely-media-pdynOoM7xmA-unsplash.jpg","807393","1","body_parts","","0","1","0","400","63100","411","64442","","","","","","","","","","","","","","","","","","","","","","","","","","","","","","","","","","","","","","","","","","","","","","","","","","","","","",""
"","iti_localizer","","html-keyboard-response","195","808116","0.0-2.0-59.0-1.0","34","38808","Female","null","","","","null","","57","","","807804","1","","","","","","300","63500","312","64853","300","","","","","","","","","","","","","","","","","","","","","","","","","","","","","","","","","","","","","","","","","","","","","","","","","","","","",""
"","localizer","","html-keyboard-response","196","808527","0.0-2.0-60.0-0.0","34","38808","Female","NaN","","","","null","NaN","58","","Stimuli/Experimental_stims/localizer/body_parts/adrien-king-XzBluXxBoyQ-unsplash.jpg","808116","1","body_parts","","0","1","0","400","63800","411","65165","","","","","","","","","","","","","","","","","","","","","","","","","","","","","","","","","","","","","","","","","","","","","","","","","","","","","",""
"","iti_localizer","","html-keyboard-response","197","808835","0.0-2.0-60.0-1.0","34","38808","Female","null","","","","null","","58","","","808527","1","","","","","","300","64200","308","65576","300","","","","","","","","","","","","","","","","","","","","","","","","","","","","","","","","","","","","","","","","","","","","","","","","","","","","",""
"","localizer","","html-keyboard-response","198","809245","0.0-2.0-61.0-0.0","34","38808","Female","NaN","","","","null","NaN","59","","Stimuli/Experimental_stims/localizer/body_parts/nattalia-nunez-MB9sdDfZMSg-unsplash.jpg","808835","1","body_parts","","1","1","0","400","64500","410","65884","","","","","","","","","","","","","","","","","","","","","","","","","","","","","","","","","","","","","","","","","","","","","","","","","","","","","",""
"","iti_localizer","","html-keyboard-response","199","809571","0.0-2.0-61.0-1.0","34","38808","Female","null","","","","null","","59","","","809245","1","","","","","","300","64900","326","66294","300","","","","","","","","","","","","","","","","","","","","","","","","","","","","","","","","","","","","","","","","","","","","","","","","","","","","",""
"","localizer","","html-keyboard-response","200","809981","0.0-2.0-62.0-0.0","34","38808","Female","NaN","","","","null","NaN","60","","Stimuli/Experimental_stims/localizer/body_parts/louis-hansel-FjKTMRTQYAs-unsplash.jpg","809571","1","body_parts","","0","1","0","400","65200","410","66620","","","","","","","","","","","","","","","","","","","","","","","","","","","","","","","","","","","","","","","","","","","","","","","","","","","","","",""
"","iti_localizer","","html-keyboard-response","201","810295","0.0-2.0-62.0-1.0","34","38808","Female","null","","","","null","","60","","","809981","1","","","","","","300","65600","314","67030","300","","","","","","","","","","","","","","","","","","","","","","","","","","","","","","","","","","","","","","","","","","","","","","","","","","","","",""
"","localizer","","html-keyboard-response","202","810705","0.0-2.0-63.0-0.0","34","38808","Female","NaN","","","","null","NaN","61","","Stimuli/Experimental_stims/localizer/body_parts/jonathan-borba-hTwH8QFkPMs-unsplash.jpg","810295","1","body_parts","","0","1","0","400","65900","410","67344","","","","","","","","","","","","","","","","","","","","","","","","","","","","","","","","","","","","","","","","","","","","","","","","","","","","","",""
"","iti_localizer","","html-keyboard-response","203","811019","0.0-2.0-63.0-1.0","34","38808","Female","null","","","","null","","61","","","810705","1","","","","","","300","66300","314","67754","300","","","","","","","","","","","","","","","","","","","","","","","","","","","","","","","","","","","","","","","","","","","","","","","","","","","","",""
"","localizer","","html-keyboard-response","204","811429","0.0-2.0-64.0-0.0","34","38808","Female","NaN","","","","null","NaN","62","","Stimuli/Experimental_stims/localizer/body_parts/hu-chen-tCbTGNwrFNM-unsplash.jpg","811019","1","body_parts","","0","1","0","400","66600","410","68068","","","","","","","","","","","","","","","","","","","","","","","","","","","","","","","","","","","","","","","","","","","","","","","","","","","","","",""
"","iti_localizer","","html-keyboard-response","205","811742","0.0-2.0-64.0-1.0","34","38808","Female","null","","","","null","","62","","","811429","1","","","","","","300","67000","313","68478","300","","","","","","","","","","","","","","","","","","","","","","","","","","","","","","","","","","","","","","","","","","","","","","","","","","","","",""
"","localizer","","html-keyboard-response","206","812153","0.0-2.0-65.0-0.0","34","38808","Female","NaN","","","","null","NaN","63","","Stimuli/Experimental_stims/localizer/body_parts/danie-franco-jyyNiSEcCl4-unsplash.jpg","811742","1","body_parts","","0","1","0","400","67300","411","68791","","","","","","","","","","","","","","","","","","","","","","","","","","","","","","","","","","","","","","","","","","","","","","","","","","","","","",""
"","iti_localizer","","html-keyboard-response","207","812461","0.0-2.0-65.0-1.0","34","38808","Female","null","","","","null","","63","","","812153","1","","","","","","300","67700","308","69202","300","","","","","","","","","","","","","","","","","","","","","","","","","","","","","","","","","","","","","","","","","","","","","","","","","","","","",""
"","localizer","","html-keyboard-response","208","812882","0.0-2.0-66.0-0.0","34","38808","Female","NaN","","","","null","NaN","64","","Stimuli/Experimental_stims/localizer/body_parts/natalie-grainger-8uB5kFKWWkk-unsplash.jpg","812461","1","body_parts","","0","1","0","400","68000","421","69510","","","","","","","","","","","","","","","","","","","","","","","","","","","","","","","","","","","","","","","","","","","","","","","","","","","","","",""
"","iti_localizer","","html-keyboard-response","209","813204","0.0-2.0-66.0-1.0","34","38808","Female","null","","","","null","","64","","","812882","1","","","","","","300","68400","322","69931","300","","","","","","","","","","","","","","","","","","","","","","","","","","","","","","","","","","","","","","","","","","","","","","","","","","","","",""
"","localizer","","html-keyboard-response","210","813615","0.0-2.0-67.0-0.0","34","38808","Female","NaN","","","","null","NaN","65","","Stimuli/Experimental_stims/localizer/body_parts/apostolos-vamvouras-g5wKHRu2QW0-unsplash.jpg","813204","1","body_parts","","0","1","0","400","68700","411","70253","","","","","","","","","","","","","","","","","","","","","","","","","","","","","","","","","","","","","","","","","","","","","","","","","","","","","",""
"","iti_localizer","","html-keyboard-response","211","827645","0.0-2.0-67.0-1.0","34","38808","Female","null","","","","null","","65","","","813615","1","","","","","","14000","69100","14030","70664","14000","","","","","","","","","","","","","","","","","","","","","","","","","","","","","","","","","","","","","","","","","","","","","","","","","","","","",""
"","localizer","","html-keyboard-response","212","828066","0.0-2.0-68.0-0.0","34","38808","Female","NaN","","","","null","NaN","66","","Stimuli/Experimental_stims/localizer/objects/quaritsch-photography-lZ8onQ1wuY8-unsplash.jpg","827645","1","objects","","1","1","0","400","83100","421","84694","","","","","","","","","","","","","","","","","","","","","","","","","","","","","","","","","","","","","","","","","","","","","","","","","","","","","",""
"","iti_localizer","","html-keyboard-response","213","828375","0.0-2.0-68.0-1.0","34","38808","Female","null","","","","null","","66","","","828066","1","","","","","","300","83500","309","85115","300","","","","","","","","","","","","","","","","","","","","","","","","","","","","","","","","","","","","","","","","","","","","","","","","","","","","",""
"","localizer","","html-keyboard-response","214","828786","0.0-2.0-69.0-0.0","34","38808","Female","69","","","","75","1","67","","Stimuli/Experimental_stims/localizer/objects/ana-9GmAaEMMKho-unsplash.jpg","828375","1","objects","","0","0","0","400","83800","411","85424","","","","","","","","","","","","","","","","","","","","","","","","","","","","","","","","","","","","","","","","","","","","","","","","","","","","","",""
"","iti_localizer","","html-keyboard-response","215","829099","0.0-2.0-69.0-1.0","34","38808","Female","null","","","","null","","67","","","828786","1","","","","","","300","84200","313","85835","300","","","","","","","","","","","","","","","","","","","","","","","","","","","","","","","","","","","","","","","","","","","","","","","","","","","","",""
"","localizer","","html-keyboard-response","216","829518","0.0-2.0-70.0-0.0","34","38808","Female","33","","","","75","1","68","","Stimuli/Experimental_stims/localizer/objects/nordwood-themes-nDd3dIkkOLo-unsplash.jpg","829099","1","objects","","0","0","0","400","84500","419","86148","","","","","","","","","","","","","","","","","","","","","","","","","","","","","","","","","","","","","","","","","","","","","","","","","","","","","",""
"","iti_localizer","","html-keyboard-response","217","829830","0.0-2.0-70.0-1.0","34","38808","Female","null","","","","null","","68","","","829518","1","","","","","","300","84900","312","86567","300","","","","","","","","","","","","","","","","","","","","","","","","","","","","","","","","","","","","","","","","","","","","","","","","","","","","",""
"","localizer","","html-keyboard-response","218","830240","0.0-2.0-71.0-0.0","34","38808","Female","208","","","","68","0","69","","Stimuli/Experimental_stims/localizer/objects/kelly-jean-cKjbI0Y00X0-unsplash.jpg","829830","1","objects","","0","0","1","400","85200","410","86879","","","","","","","","","","","","","","","","","","","","","","","","","","","","","","","","","","","","","","","","","","","","","","","","","","","","","",""
"","iti_localizer","","html-keyboard-response","219","830551","0.0-2.0-71.0-1.0","34","38808","Female","null","","","","null","","69","","","830240","1","","","","","","300","85600","311","87289","300","","","","","","","","","","","","","","","","","","","","","","","","","","","","","","","","","","","","","","","","","","","","","","","","","","","","",""
"","localizer","","html-keyboard-response","220","830962","0.0-2.0-72.0-0.0","34","38808","Female","1","","","","75","1","70","","Stimuli/Experimental_stims/localizer/objects/florian-klauer-nptLmg6jqDo-unsplash.jpg","830551","1","objects","","0","0","0","400","85900","411","87600","","","","","","","","","","","","","","","","","","","","","","","","","","","","","","","","","","","","","","","","","","","","","","","","","","","","","",""
"","iti_localizer","","html-keyboard-response","221","831275","0.0-2.0-72.0-1.0","34","38808","Female","null","","","","null","","70","","","830962","1","","","","","","300","86300","313","88011","300","","","","","","","","","","","","","","","","","","","","","","","","","","","","","","","","","","","","","","","","","","","","","","","","","","","","",""
"","localizer","","html-keyboard-response","222","831690","0.0-2.0-73.0-0.0","34","38808","Female","119","","","","68","0","71","","Stimuli/Experimental_stims/localizer/objects/nicolas-hippert-SVgX47QIUlc-unsplash.jpg","831275","1","objects","","0","0","1","400","86600","415","88324","","","","","","","","","","","","","","","","","","","","","","","","","","","","","","","","","","","","","","","","","","","","","","","","","","","","","",""
"","iti_localizer","","html-keyboard-response","223","832003","0.0-2.0-73.0-1.0","34","38808","Female","null","","","","null","","71","","","831690","1","","","","","","300","87000","313","88739","300","","","","","","","","","","","","","","","","","","","","","","","","","","","","","","","","","","","","","","","","","","","","","","","","","","","","",""
"","localizer","","html-keyboard-response","224","832421","0.0-2.0-74.0-0.0","34","38808","Female","240","","","","75","1","72","","Stimuli/Experimental_stims/localizer/objects/florian-klauer-mk7D-4UCfmg-unsplash.jpg","832003","1","objects","","0","0","0","400","87300","418","89052","","","","","","","","","","","","","","","","","","","","","","","","","","","","","","","","","","","","","","","","","","","","","","","","","","","","","",""
"","iti_localizer","","html-keyboard-response","225","832728","0.0-2.0-74.0-1.0","34","38808","Female","null","","","","null","","72","","","832421","1","","","","","","300","87700","307","89470","300","","","","","","","","","","","","","","","","","","","","","","","","","","","","","","","","","","","","","","","","","","","","","","","","","","","","",""
"","localizer","","html-keyboard-response","226","833137","0.0-2.0-75.0-0.0","34","38808","Female","283","","","","68","0","73","","Stimuli/Experimental_stims/localizer/objects/alex-lvrs-2zDw14yCYqk-unsplash.jpg","832728","1","objects","","0","0","1","400","88000","409","89777","","","","","","","","","","","","","","","","","","","","","","","","","","","","","","","","","","","","","","","","","","","","","","","","","","","","","",""
"","iti_localizer","","html-keyboard-response","227","833450","0.0-2.0-75.0-1.0","34","38808","Female","null","","","","null","","73","","","833137","1","","","","","","300","88400","313","90186","300","","","","","","","","","","","","","","","","","","","","","","","","","","","","","","","","","","","","","","","","","","","","","","","","","","","","",""
"","localizer","","html-keyboard-response","228","833871","0.0-2.0-76.0-0.0","34","38808","Female","132","","","","75","1","74","","Stimuli/Experimental_stims/localizer/objects/hipster-mum-XookgCxFw6Q-unsplash.jpg","833450","1","objects","","0","0","0","400","88700","421","90499","","","","","","","","","","","","","","","","","","","","","","","","","","","","","","","","","","","","","","","","","","","","","","","","","","","","","",""
"","iti_localizer","","html-keyboard-response","229","834197","0.0-2.0-76.0-1.0","34","38808","Female","null","","","","null","","74","","","833871","1","","","","","","300","89100","326","90920","300","","","","","","","","","","","","","","","","","","","","","","","","","","","","","","","","","","","","","","","","","","","","","","","","","","","","",""
"","localizer","","html-keyboard-response","230","834610","0.0-2.0-77.0-0.0","34","38808","Female","121","","","","68","0","75","","Stimuli/Experimental_stims/localizer/objects/ian-talmacs-ugqU0a4P18U-unsplash.jpg","834197","1","objects","","0","0","1","400","89400","413","91246","","","","","","","","","","","","","","","","","","","","","","","","","","","","","","","","","","","","","","","","","","","","","","","","","","","","","",""
"","iti_localizer","","html-keyboard-response","231","834921","0.0-2.0-77.0-1.0","34","38808","Female","null","","","","null","","75","","","834610","1","","","","","","300","89800","311","91659","300","","","","","","","","","","","","","","","","","","","","","","","","","","","","","","","","","","","","","","","","","","","","","","","","","","","","",""
"","localizer","","html-keyboard-response","232","835333","0.0-2.0-78.0-0.0","34","38808","Female","132","","","","68","0","76","","Stimuli/Experimental_stims/localizer/objects/chris-briggs-FobzAZJGM9M-unsplash.jpg","834921","1","objects","","0","0","1","400","90100","412","91970","","","","","","","","","","","","","","","","","","","","","","","","","","","","","","","","","","","","","","","","","","","","","","","","","","","","","",""
"","iti_localizer","","html-keyboard-response","233","835645","0.0-2.0-78.0-1.0","34","38808","Female","null","","","","null","","76","","","835333","1","","","","","","300","90500","312","92382","300","","","","","","","","","","","","","","","","","","","","","","","","","","","","","","","","","","","","","","","","","","","","","","","","","","","","",""
"","localizer","","html-keyboard-response","234","836061","0.0-2.0-79.0-0.0","34","38808","Female","121","","","","75","1","77","","Stimuli/Experimental_stims/localizer/objects/recha-oktaviani-t__61ap00Mc-unsplash.jpg","835645","1","objects","","0","0","0","400","90800","416","92694","","","","","","","","","","","","","","","","","","","","","","","","","","","","","","","","","","","","","","","","","","","","","","","","","","","","","",""
"","iti_localizer","","html-keyboard-response","235","836378","0.0-2.0-79.0-1.0","34","38808","Female","null","","","","null","","77","","","836061","1","","","","","","300","91200","317","93110","300","","","","","","","","","","","","","","","","","","","","","","","","","","","","","","","","","","","","","","","","","","","","","","","","","","","","",""
"","localizer","","html-keyboard-response","236","836794","0.0-2.0-80.0-0.0","34","38808","Female","139","","","","68","0","78","","Stimuli/Experimental_stims/localizer/objects/jonny-caspari-wsvCC6UyKjs-unsplash.jpg","836378","1","objects","","0","0","1","400","91500","416","93427","","","","","","","","","","","","","","","","","","","","","","","","","","","","","","","","","","","","","","","","","","","","","","","","","","","","","",""
"","iti_localizer","","html-keyboard-response","237","837113","0.0-2.0-80.0-1.0","34","38808","Female","null","","","","null","","78","","","836794","1","","","","","","300","91900","319","93843","300","","","","","","","","","","","","","","","","","","","","","","","","","","","","","","","","","","","","","","","","","","","","","","","","","","","","",""
"","localizer","","html-keyboard-response","238","837526","0.0-2.0-81.0-0.0","34","38808","Female","70","","","","68","0","79","","Stimuli/Experimental_stims/localizer/objects/markus-spiske-ANrVtttbNss-unsplash.jpg","837113","1","objects","","0","0","1","400","92200","413","94162","","","","","","","","","","","","","","","","","","","","","","","","","","","","","","","","","","","","","","","","","","","","","","","","","","","","","",""
"","iti_localizer","","html-keyboard-response","239","837833","0.0-2.0-81.0-1.0","34","38808","Female","null","","","","null","","79","","","837526","1","","","","","","300","92600","307","94575","300","","","","","","","","","","","","","","","","","","","","","","","","","","","","","","","","","","","","","","","","","","","","","","","","","","","","",""
"","localizer","","html-keyboard-response","240","838242","0.0-2.0-82.0-0.0","34","38808","Female","206","","","","68","0","80","","Stimuli/Experimental_stims/localizer/objects/ignat-dolomanov-kFBDVnmskPA-unsplash.jpg","837833","1","objects","","0","0","1","400","92900","409","94882","","","","","","","","","","","","","","","","","","","","","","","","","","","","","","","","","","","","","","","","","","","","","","","","","","","","","",""
"","iti_localizer","","html-keyboard-response","241","838550","0.0-2.0-82.0-1.0","34","38808","Female","null","","","","null","","80","","","838242","1","","","","","","300","93300","308","95291","300","","","","","","","","","","","","","","","","","","","","","","","","","","","","","","","","","","","","","","","","","","","","","","","","","","","","",""
"","localizer","","html-keyboard-response","242","838962","0.0-2.0-83.0-0.0","34","38808","Female","71","","","","75","1","81","","Stimuli/Experimental_stims/localizer/objects/mockup-graphics-Pj2PY-E-LfM-unsplash.jpg","838550","1","objects","","0","0","0","400","93600","412","95599","","","","","","","","","","","","","","","","","","","","","","","","","","","","","","","","","","","","","","","","","","","","","","","","","","","","","",""
"","iti_localizer","","html-keyboard-response","243","839300","0.0-2.0-83.0-1.0","34","38808","Female","null","","","","null","","81","","","838962","1","","","","","","300","94000","338","96011","300","","","","","","","","","","","","","","","","","","","","","","","","","","","","","","","","","","","","","","","","","","","","","","","","","","","","",""
"","localizer","","html-keyboard-response","244","839711","0.0-2.0-84.0-0.0","34","38808","Female","59","","","","75","1","82","","Stimuli/Experimental_stims/localizer/objects/lance-reis-v0FYj9iioQg-unsplash.jpg","839300","1","objects","","0","0","0","400","94300","411","96349","","","","","","","","","","","","","","","","","","","","","","","","","","","","","","","","","","","","","","","","","","","","","","","","","","","","","",""
"","iti_localizer","","html-keyboard-response","245","840019","0.0-2.0-84.0-1.0","34","38808","Female","null","","","","null","","82","","","839711","1","","","","","","300","94700","308","96760","300","","","","","","","","","","","","","","","","","","","","","","","","","","","","","","","","","","","","","","","","","","","","","","","","","","","","",""
