"success","ttype","start_time","trial_type","trial_index","time_elapsed","internal_node_id","age","PID","gender","rt","responses","view_history","repeat_instructions","key_press","response","index","stimulus_index","path","start_time_elapsed","run","task","isi","is_odd_ball","no_response","acc","duration","onset","duration_time_elapsed","onset_time_elapsed","trial_duration","left_chosen","chosen_stimulus","unchosen_stimulus","chosen_category","unchosen_category","chosen_rating","unchosen_rating","chosen_path","unchosen_path","pair_id","practice","scramble_screen_time","scramble_instructed_side","stim_type","iti","block","left_stimulus","right_stimulus","left_category","right_category","left_path","right_path","left_rating","right_rating","scramble_acc","scramble_no_response","warning","missed_checkup","stimulus_id","item_id","outcome","response_rt","deliberation_reward_tally","choice_type","gain_left","left_item_id","right_item_id","higher_outcome_chosen","chosen_left","old_pair","pair_type","old_response","pair_acc","reward_type","outcome_response","outcome_rt","outcome_acc","category","choice","deliberated_stim","old_rating","new_rating","total_reward_tally"
"true","full_screen","d08172023hr1523","fullscreen","0","13406","0.0-0.0-0.0","28","70701","female","","","","","","","","","","","","","","","","","","","","","","","","","","","","","","","","","","","","","","","","","","","","","","","","","","","","","","","","","","","","","","","","","","","","","","","","","",""
"","get_id","","survey-text","1","19562","0.0-0.0-1.0","28","70701","female","6139","{""Q0"":""28"",""Q1"":""female""}","","","","","","","","","","","","","","","","","","","","","","","","","","","","","","","","","","","","","","","","","","","","","","","","","","","","","","","","","","","","","","","","","","","","","","","",""
"","ratings_instructions","","instructions","2","103728","0.0-1.0-0.0-0.0","28","70701","female","81966","","[{""page_index"":0,""viewing_time"":78483},{""page_index"":1,""viewing_time"":3481}]","","","","","","","","","","","","","","","","","","","","","","","","","","","","","","","","","","","","","","","","","","","","","","","","","","","","","","","","","","","","","","","","","","","","","","",""
"","rating_comprehension_check","","survey-multi-choice","3","112876","0.0-1.0-0.0-1.0","28","70701","female","9126","{""Q0"":""True"",""Q1"":""Mouse""}","","0","","","","","","","","","","","","","","","","","","","","","","","","","","","","","","","","","","","","","","","","","","","","","","","","","","","","","","","","","","","","","","","","","","","","","",""
"","","","html-keyboard-response","4","116311","0.0-1.0-1.0","28","70701","female","3421","","","","68","","","","","","","","","","","","","","","","","","","","","","","","","","","","","","","","","","","","","","","","","","","","","","","","","","","","","","","","","","","","","","","","","","","","",""
"","rating","","html-slider-response","5","121224","0.0-1.0-2.0","28","70701","female","4898","","","","","62","0","28","Stimuli/Experimental_stims/body_parts/ira-vishnevskaya-8DQAvdCby1I-unsplash.jpg","","","","","","","","","","","","","","","","","","","","","","","","","","","","","","","","","","","","","","","","","","","","","","","","","","","","","","","","","","","","","","","","",""
"","rating","","html-slider-response","6","180073","0.0-1.0-3.0","28","70701","female","58813","","","","","62","1","4","Stimuli/Experimental_stims/outdoor_scenes/jarrett-kow-1ZOyYPOBn7I-unsplash.jpg","","","","","","","","","","","","","","","","","","","","","","","","","","","","","","","","","","","","","","","","","","","","","","","","","","","","","","","","","","","","","","","","",""
"","rating","","html-slider-response","7","183659","0.0-1.0-4.0","28","70701","female","3572","","","","","32","2","35","Stimuli/Experimental_stims/body_parts/wc-so-KH4AAPjb-tI-unsplash.jpg","","","","","","","","","","","","","","","","","","","","","","","","","","","","","","","","","","","","","","","","","","","","","","","","","","","","","","","","","","","","","","","","",""
"","rating","","html-slider-response","8","202989","0.0-1.0-5.0","28","70701","female","19297","","","","","66","3","47","Stimuli/Experimental_stims/objects/ronaldo-arthur-vidal-Cdz_lvnl37k-unsplash.jpg","","","","","","","","","","","","","","","","","","","","","","","","","","","","","","","","","","","","","","","","","","","","","","","","","","","","","","","","","","","","","","","","",""
"","rating","","html-slider-response","9","206995","0.0-1.0-6.0","28","70701","female","3976","","","","","90","4","9","Stimuli/Experimental_stims/outdoor_scenes/sergey-pesterev-y-b_FOmJXdg-unsplash.jpg","","","","","","","","","","","","","","","","","","","","","","","","","","","","","","","","","","","","","","","","","","","","","","","","","","","","","","","","","","","","","","","","",""
"","rating","","html-slider-response","10","257098","0.0-1.0-7.0","28","70701","female","50074","","","","","75","5","31","Stimuli/Experimental_stims/body_parts/sincerely-media-VN6DbKajo5s-unsplash.jpg","","","","","","","","","","","","","","","","","","","","","","","","","","","","","","","","","","","","","","","","","","","","","","","","","","","","","","","","","","","","","","","","",""
"","rating","","html-slider-response","11","264005","0.0-1.0-8.0","28","70701","female","6839","","","","","88","6","5","Stimuli/Experimental_stims/outdoor_scenes/jeff-king-bJHWJeiHfHc-unsplash.jpg","","","","","","","","","","","","","","","","","","","","","","","","","","","","","","","","","","","","","","","","","","","","","","","","","","","","","","","","","","","","","","","","",""
"","rating","","html-slider-response","12","269878","0.0-1.0-9.0","28","70701","female","5840","","","","","78","7","27","Stimuli/Experimental_stims/body_parts/heike-mintel-i_Gns0ELnLw-unsplash.jpg","","","","","","","","","","","","","","","","","","","","","","","","","","","","","","","","","","","","","","","","","","","","","","","","","","","","","","","","","","","","","","","","",""
"","rating","","html-slider-response","13","385081","0.0-1.0-10.0","28","70701","female","115168","","","","","79","8","37","Stimuli/Experimental_stims/objects/alexander-andrews-VLGWE_SumrA-unsplash.jpg","","","","","","","","","","","","","","","","","","","","","","","","","","","","","","","","","","","","","","","","","","","","","","","","","","","","","","","","","","","","","","","","",""
"","rating","","html-slider-response","14","392758","0.0-1.0-11.0","28","70701","female","7636","","","","","78","9","19","Stimuli/Experimental_stims/faces/joel-mott-LaK153ghdig-unsplash.jpg","","","","","","","","","","","","","","","","","","","","","","","","","","","","","","","","","","","","","","","","","","","","","","","","","","","","","","","","","","","","","","","","",""
"","rating","","html-slider-response","15","398903","0.0-1.0-12.0","28","70701","female","6125","","","","","75","10","34","Stimuli/Experimental_stims/body_parts/wagner-santos-mBWMvIuVnso-unsplash.jpg","","","","","","","","","","","","","","","","","","","","","","","","","","","","","","","","","","","","","","","","","","","","","","","","","","","","","","","","","","","","","","","","",""
"","rating","","html-slider-response","16","404848","0.0-1.0-13.0","28","70701","female","5915","","","","","83","11","22","Stimuli/Experimental_stims/faces/ravi-patel-VMGAbeeJTKo-unsplash.jpg","","","","","","","","","","","","","","","","","","","","","","","","","","","","","","","","","","","","","","","","","","","","","","","","","","","","","","","","","","","","","","","","",""
"","rating","","html-slider-response","17","471812","0.0-1.0-14.0","28","70701","female","66929","","","","","75","12","1","Stimuli/Experimental_stims/outdoor_scenes/ashim-d-silva-S2Q5mdOrrVc-unsplash.jpg","","","","","","","","","","","","","","","","","","","","","","","","","","","","","","","","","","","","","","","","","","","","","","","","","","","","","","","","","","","","","","","","",""
"","rating","","html-slider-response","18","477691","0.0-1.0-15.0","28","70701","female","5843","","","","","83","13","15","Stimuli/Experimental_stims/faces/erik-lucatero-d2MSDujJl2g-unsplash.jpg","","","","","","","","","","","","","","","","","","","","","","","","","","","","","","","","","","","","","","","","","","","","","","","","","","","","","","","","","","","","","","","","",""
"","rating","","html-slider-response","19","483947","0.0-1.0-16.0","28","70701","female","6215","","","","","94","14","17","Stimuli/Experimental_stims/faces/good-faces-xmSWVeGEnJw-unsplash.jpg","","","","","","","","","","","","","","","","","","","","","","","","","","","","","","","","","","","","","","","","","","","","","","","","","","","","","","","","","","","","","","","","",""
"","rating","","html-slider-response","20","489353","0.0-1.0-17.0","28","70701","female","5384","","","","","63","15","12","Stimuli/Experimental_stims/faces/aiony-haust-jmATI5Q_YgY-unsplash.jpg","","","","","","","","","","","","","","","","","","","","","","","","","","","","","","","","","","","","","","","","","","","","","","","","","","","","","","","","","","","","","","","","",""
"","rating","","html-slider-response","21","495659","0.0-1.0-18.0","28","70701","female","6280","","","","","71","16","0","Stimuli/Experimental_stims/outdoor_scenes/aleksandra-boguslawska-MS7KD9Ti7FQ-unsplash.jpg","","","","","","","","","","","","","","","","","","","","","","","","","","","","","","","","","","","","","","","","","","","","","","","","","","","","","","","","","","","","","","","","",""
"","rating","","html-slider-response","22","503579","0.0-1.0-19.0","28","70701","female","7892","","","","","29","17","41","Stimuli/Experimental_stims/objects/insung-yoon-w2JtIQQXoRU-unsplash.jpg","","","","","","","","","","","","","","","","","","","","","","","","","","","","","","","","","","","","","","","","","","","","","","","","","","","","","","","","","","","","","","","","",""
"","rating","","html-slider-response","23","511024","0.0-1.0-20.0","28","70701","female","7417","","","","","63","18","18","Stimuli/Experimental_stims/faces/jessica-radanavong-mrYkTuAesKE-unsplash.jpg","","","","","","","","","","","","","","","","","","","","","","","","","","","","","","","","","","","","","","","","","","","","","","","","","","","","","","","","","","","","","","","","",""
"","rating","","html-slider-response","24","517351","0.0-1.0-21.0","28","70701","female","6299","","","","","73","19","11","Stimuli/Experimental_stims/outdoor_scenes/stephen-leonardi-gyIRjKPXupE-unsplash.jpg","","","","","","","","","","","","","","","","","","","","","","","","","","","","","","","","","","","","","","","","","","","","","","","","","","","","","","","","","","","","","","","","",""
"","rating","","html-slider-response","25","522551","0.0-1.0-22.0","28","70701","female","5186","","","","","73","20","20","Stimuli/Experimental_stims/faces/justin-chen-J7Cf1Gch49E-unsplash.jpg","","","","","","","","","","","","","","","","","","","","","","","","","","","","","","","","","","","","","","","","","","","","","","","","","","","","","","","","","","","","","","","","",""
"","rating","","html-slider-response","26","527721","0.0-1.0-23.0","28","70701","female","5157","","","","","70","21","23","Stimuli/Experimental_stims/faces/rikonavt-HQjfrvdTfak-unsplash.jpg","","","","","","","","","","","","","","","","","","","","","","","","","","","","","","","","","","","","","","","","","","","","","","","","","","","","","","","","","","","","","","","","",""
"","rating","","html-slider-response","27","535133","0.0-1.0-24.0","28","70701","female","7389","","","","","32","22","25","Stimuli/Experimental_stims/body_parts/engin-akyurt-Q2rfH3GW39c-unsplash.jpg","","","","","","","","","","","","","","","","","","","","","","","","","","","","","","","","","","","","","","","","","","","","","","","","","","","","","","","","","","","","","","","","",""
"","rating","","html-slider-response","28","541171","0.0-1.0-25.0","28","70701","female","6026","","","","","77","23","33","Stimuli/Experimental_stims/body_parts/tucker-good-36skLT5jZcc-unsplash.jpg","","","","","","","","","","","","","","","","","","","","","","","","","","","","","","","","","","","","","","","","","","","","","","","","","","","","","","","","","","","","","","","","",""
"","rating","","html-slider-response","29","597261","0.0-1.0-26.0","28","70701","female","56056","","","","","71","24","32","Stimuli/Experimental_stims/body_parts/towfiqu-barbhuiya-3AsiVDsZnHg-unsplash.jpg","","","","","","","","","","","","","","","","","","","","","","","","","","","","","","","","","","","","","","","","","","","","","","","","","","","","","","","","","","","","","","","","",""
"","rating","","html-slider-response","30","603127","0.0-1.0-27.0","28","70701","female","5842","","","","","67","25","30","Stimuli/Experimental_stims/body_parts/mika-korhonen-Xodzxosar18-unsplash.jpg","","","","","","","","","","","","","","","","","","","","","","","","","","","","","","","","","","","","","","","","","","","","","","","","","","","","","","","","","","","","","","","","",""
"","rating","","html-slider-response","31","609199","0.0-1.0-28.0","28","70701","female","6043","","","","","68","26","16","Stimuli/Experimental_stims/faces/freddy-kearney-o-ioeoATbIM-unsplash.jpg","","","","","","","","","","","","","","","","","","","","","","","","","","","","","","","","","","","","","","","","","","","","","","","","","","","","","","","","","","","","","","","","",""
"","rating","","html-slider-response","32","614472","0.0-1.0-29.0","28","70701","female","5243","","","","","24","27","14","Stimuli/Experimental_stims/faces/david-siglin-UuW4psOb388-unsplash.jpg","","","","","","","","","","","","","","","","","","","","","","","","","","","","","","","","","","","","","","","","","","","","","","","","","","","","","","","","","","","","","","","","",""
"","rating","","html-slider-response","33","619470","0.0-1.0-30.0","28","70701","female","4970","","","","","74","28","36","Stimuli/Experimental_stims/objects/alexander-andrews-JYGnB9gTCls-unsplash.jpg","","","","","","","","","","","","","","","","","","","","","","","","","","","","","","","","","","","","","","","","","","","","","","","","","","","","","","","","","","","","","","","","",""
"","rating","","html-slider-response","34","625407","0.0-1.0-31.0","28","70701","female","5909","","","","","79","29","3","Stimuli/Experimental_stims/outdoor_scenes/henry-be-NLF6hTe4PAg-unsplash.jpg","","","","","","","","","","","","","","","","","","","","","","","","","","","","","","","","","","","","","","","","","","","","","","","","","","","","","","","","","","","","","","","","",""
"","rating","","html-slider-response","35","630661","0.0-1.0-32.0","28","70701","female","5230","","","","","69","30","29","Stimuli/Experimental_stims/body_parts/manuel-schinner-ZwjFuJ7ebpk-unsplash.jpg","","","","","","","","","","","","","","","","","","","","","","","","","","","","","","","","","","","","","","","","","","","","","","","","","","","","","","","","","","","","","","","","",""
"","rating","","html-slider-response","36","637014","0.0-1.0-33.0","28","70701","female","6316","","","","","25","31","43","Stimuli/Experimental_stims/objects/jonathan-greenaway-Y4hGgeiFn3s-unsplash.jpg","","","","","","","","","","","","","","","","","","","","","","","","","","","","","","","","","","","","","","","","","","","","","","","","","","","","","","","","","","","","","","","","",""
"","rating","","html-slider-response","37","642504","0.0-1.0-34.0","28","70701","female","5465","","","","","76","32","40","Stimuli/Experimental_stims/objects/fabian-blank-pElSkGRA2NU-unsplash.jpg","","","","","","","","","","","","","","","","","","","","","","","","","","","","","","","","","","","","","","","","","","","","","","","","","","","","","","","","","","","","","","","","",""
"","rating","","html-slider-response","38","647699","0.0-1.0-35.0","28","70701","female","5155","","","","","77","33","2","Stimuli/Experimental_stims/outdoor_scenes/bruno-van-der-kraan-qez8mNJ3ilU-unsplash.jpg","","","","","","","","","","","","","","","","","","","","","","","","","","","","","","","","","","","","","","","","","","","","","","","","","","","","","","","","","","","","","","","","",""
"","rating","","html-slider-response","39","653779","0.0-1.0-36.0","28","70701","female","6038","","","","","36","34","26","Stimuli/Experimental_stims/body_parts/engin-akyurt-x_3gyC42btc-unsplash.jpg","","","","","","","","","","","","","","","","","","","","","","","","","","","","","","","","","","","","","","","","","","","","","","","","","","","","","","","","","","","","","","","","",""
"","rating","","html-slider-response","40","659260","0.0-1.0-37.0","28","70701","female","5460","","","","","76","35","45","Stimuli/Experimental_stims/objects/leohoho-rngTKHXumy0-unsplash.jpg","","","","","","","","","","","","","","","","","","","","","","","","","","","","","","","","","","","","","","","","","","","","","","","","","","","","","","","","","","","","","","","","",""
"","rating","","html-slider-response","41","665768","0.0-1.0-38.0","28","70701","female","6481","","","","","78","36","6","Stimuli/Experimental_stims/outdoor_scenes/meng-ji-8BH_M-53CyA-unsplash.jpg","","","","","","","","","","","","","","","","","","","","","","","","","","","","","","","","","","","","","","","","","","","","","","","","","","","","","","","","","","","","","","","","",""
"","rating","","html-slider-response","42","671690","0.0-1.0-39.0","28","70701","female","5893","","","","","72","37","13","Stimuli/Experimental_stims/faces/daniel-rigdon-dXmXKPP2L4E-unsplash.jpg","","","","","","","","","","","","","","","","","","","","","","","","","","","","","","","","","","","","","","","","","","","","","","","","","","","","","","","","","","","","","","","","",""
"","rating","","html-slider-response","43","677871","0.0-1.0-40.0","28","70701","female","6156","","","","","30","38","44","Stimuli/Experimental_stims/objects/kuiye-chen-NuOGFo4PudE-unsplash.jpg","","","","","","","","","","","","","","","","","","","","","","","","","","","","","","","","","","","","","","","","","","","","","","","","","","","","","","","","","","","","","","","","",""
"","rating","","html-slider-response","44","742306","0.0-1.0-41.0","28","70701","female","64407","","","","","75","39","42","Stimuli/Experimental_stims/objects/jess-bailey-nOeVi8DsN8U-unsplash.jpg","","","","","","","","","","","","","","","","","","","","","","","","","","","","","","","","","","","","","","","","","","","","","","","","","","","","","","","","","","","","","","","","",""
"","rating","","html-slider-response","45","747111","0.0-1.0-42.0","28","70701","female","4786","","","","","75","40","24","Stimuli/Experimental_stims/body_parts/clay-banks-LjqARJaJotc-unsplash.jpg","","","","","","","","","","","","","","","","","","","","","","","","","","","","","","","","","","","","","","","","","","","","","","","","","","","","","","","","","","","","","","","","",""
"","rating","","html-slider-response","46","751534","0.0-1.0-43.0","28","70701","female","4379","","","","","72","41","21","Stimuli/Experimental_stims/faces/leilani-angel-K84vnnzxmTQ-unsplash.jpg","","","","","","","","","","","","","","","","","","","","","","","","","","","","","","","","","","","","","","","","","","","","","","","","","","","","","","","","","","","","","","","","",""
"","rating","","html-slider-response","47","755944","0.0-1.0-44.0","28","70701","female","4382","","","","","77","42","7","Stimuli/Experimental_stims/outdoor_scenes/petr-vysohlid-9fqwGqGLUxc-unsplash.jpg","","","","","","","","","","","","","","","","","","","","","","","","","","","","","","","","","","","","","","","","","","","","","","","","","","","","","","","","","","","","","","","","",""
"","rating","","html-slider-response","48","761119","0.0-1.0-45.0","28","70701","female","5143","","","","","72","43","46","Stimuli/Experimental_stims/objects/mockup-graphics-PNsj6RiHAF4-unsplash.jpg","","","","","","","","","","","","","","","","","","","","","","","","","","","","","","","","","","","","","","","","","","","","","","","","","","","","","","","","","","","","","","","","",""
"","rating","","html-slider-response","49","767355","0.0-1.0-46.0","28","70701","female","6215","","","","","76","44","38","Stimuli/Experimental_stims/objects/art-lasovsky-8XddFc6NkBY-unsplash.jpg","","","","","","","","","","","","","","","","","","","","","","","","","","","","","","","","","","","","","","","","","","","","","","","","","","","","","","","","","","","","","","","","",""
"","rating","","html-slider-response","50","772888","0.0-1.0-47.0","28","70701","female","5486","","","","","70","45","8","Stimuli/Experimental_stims/outdoor_scenes/samsommer-vddccTqwal8-unsplash.jpg","","","","","","","","","","","","","","","","","","","","","","","","","","","","","","","","","","","","","","","","","","","","","","","","","","","","","","","","","","","","","","","","",""
"","rating","","html-slider-response","51","778036","0.0-1.0-48.0","28","70701","female","5130","","","","","72","46","10","Stimuli/Experimental_stims/outdoor_scenes/shannon-kunkle-dM8INmkyDas-unsplash.jpg","","","","","","","","","","","","","","","","","","","","","","","","","","","","","","","","","","","","","","","","","","","","","","","","","","","","","","","","","","","","","","","","",""
"","rating","","html-slider-response","52","783194","0.0-1.0-49.0","28","70701","female","5120","","","","","73","47","39","Stimuli/Experimental_stims/objects/charlesdeluvio-1-nx1QR5dTE-unsplash.jpg","","","","","","","","","","","","","","","","","","","","","","","","","","","","","","","","","","","","","","","","","","","","","","","","","","","","","","","","","","","","","","","","",""
"","localizer_instructions","","instructions","53","859793","0.0-2.0-0.0-0.0","28","70701","female","76500","","[{""page_index"":0,""viewing_time"":53263},{""page_index"":1,""viewing_time"":19815},{""page_index"":2,""viewing_time"":3421}]","","","","","","","","","","","","","","","","","","","","","","","","","","","","","","","","","","","","","","","","","","","","","","","","","","","","","","","","","","","","","","","","","","","","","","",""
"","localizer_comprehension_check","","survey-multi-choice","54","872239","0.0-2.0-0.0-1.0","28","70701","female","12412","{""Q0"":""True"",""Q1"":""K"",""Q2"":""D""}","","0","","","","","","","","","","","","","","","","","","","","","","","","","","","","","","","","","","","","","","","","","","","","","","","","","","","","","","","","","","","","","","","","","","","","","",""
"","","","html-keyboard-response","55","879940","0.0-2.0-1.0","28","70701","female","7670","","","","68","","","","","","","","","","","","","","","","","","","","","","","","","","","","","","","","","","","","","","","","","","","","","","","","","","","","","","","","","","","","","","","","","","","","",""
"","localizer","","html-keyboard-response","56","880366","0.0-2.0-2.0-0.0","28","70701","female","NaN","","","","null","NaN","0","","Stimuli/Practice_stims/Localizer/annie-spratt-g9KFpAfQ5bc-unsplash.jpg","879940","0","NaN","","0","1","0","400","0","426","0","","","","","","","","","","","","","","","","","","","","","","","","","","","","","","","","","","","","","","","","","","","","","","","","","","","","","",""
"","iti_localizer","","html-keyboard-response","57","880679","0.0-2.0-2.0-1.0","28","70701","female","null","","","","null","","0","","","880366","0","","","","","","300","400","313","426","300","","","","","","","","","","","","","","","","","","","","","","","","","","","","","","","","","","","","","","","","","","","","","","","","","","","","",""
"","localizer","","html-keyboard-response","58","881098","0.0-2.0-2.1-0.1","28","70701","female","NaN","","","","null","NaN","0","","Stimuli/Practice_stims/Localizer/annie-spratt-g9KFpAfQ5bc-unsplash.jpg","880679","0","NaN","","0","1","0","400","700","419","739","","","","","","","","","","","","","","","","","","","","","","","","","","","","","","","","","","","","","","","","","","","","","","","","","","","","","",""
"","iti_localizer","","html-keyboard-response","59","881434","0.0-2.0-2.1-1.1","28","70701","female","null","","","","null","","0","","","881098","0","","","","","","300","1100","336","1158","300","","","","","","","","","","","","","","","","","","","","","","","","","","","","","","","","","","","","","","","","","","","","","","","","","","","","",""
"","localizer","","html-keyboard-response","60","881855","0.0-2.0-2.2-0.2","28","70701","female","NaN","","","","null","NaN","0","","Stimuli/Practice_stims/Localizer/annie-spratt-g9KFpAfQ5bc-unsplash.jpg","881434","0","NaN","","0","1","0","400","1400","421","1494","","","","","","","","","","","","","","","","","","","","","","","","","","","","","","","","","","","","","","","","","","","","","","","","","","","","","",""
"","iti_localizer","","html-keyboard-response","61","882178","0.0-2.0-2.2-1.2","28","70701","female","null","","","","null","","0","","","881855","0","","","","","","300","1800","323","1915","300","","","","","","","","","","","","","","","","","","","","","","","","","","","","","","","","","","","","","","","","","","","","","","","","","","","","",""
"","localizer","","html-keyboard-response","62","882646","0.0-2.0-2.3-0.3","28","70701","female","NaN","","","","null","NaN","0","","Stimuli/Practice_stims/Localizer/annie-spratt-g9KFpAfQ5bc-unsplash.jpg","882178","0","NaN","","0","1","0","400","2100","468","2238","","","","","","","","","","","","","","","","","","","","","","","","","","","","","","","","","","","","","","","","","","","","","","","","","","","","","",""
"","iti_localizer","","html-keyboard-response","63","882961","0.0-2.0-2.3-1.3","28","70701","female","null","","","","null","","0","","","882646","0","","","","","","300","2500","315","2706","300","","","","","","","","","","","","","","","","","","","","","","","","","","","","","","","","","","","","","","","","","","","","","","","","","","","","",""
"","localizer","","html-keyboard-response","64","883385","0.0-2.0-2.4-0.4","28","70701","female","NaN","","","","null","NaN","0","","Stimuli/Practice_stims/Localizer/annie-spratt-g9KFpAfQ5bc-unsplash.jpg","882961","0","NaN","","0","1","0","400","2800","424","3021","","","","","","","","","","","","","","","","","","","","","","","","","","","","","","","","","","","","","","","","","","","","","","","","","","","","","",""
"","iti_localizer","","html-keyboard-response","65","883716","0.0-2.0-2.4-1.4","28","70701","female","null","","","","null","","0","","","883385","0","","","","","","300","3200","331","3445","300","","","","","","","","","","","","","","","","","","","","","","","","","","","","","","","","","","","","","","","","","","","","","","","","","","","","",""
"","localizer","","html-keyboard-response","66","884147","0.0-2.0-2.5-0.5","28","70701","female","NaN","","","","null","NaN","0","","Stimuli/Practice_stims/Localizer/annie-spratt-g9KFpAfQ5bc-unsplash.jpg","883716","0","NaN","","0","1","0","400","3500","431","3776","","","","","","","","","","","","","","","","","","","","","","","","","","","","","","","","","","","","","","","","","","","","","","","","","","","","","",""
"","iti_localizer","","html-keyboard-response","67","884479","0.0-2.0-2.5-1.5","28","70701","female","null","","","","null","","0","","","884147","0","","","","","","300","3900","332","4207","300","","","","","","","","","","","","","","","","","","","","","","","","","","","","","","","","","","","","","","","","","","","","","","","","","","","","",""
"","localizer","","html-keyboard-response","68","884891","0.0-2.0-2.6-0.6","28","70701","female","244","","","","68","0","0","","Stimuli/Practice_stims/Localizer/annie-spratt-g9KFpAfQ5bc-unsplash.jpg","884479","0","NaN","","0","0","1","400","4200","412","4539","","","","","","","","","","","","","","","","","","","","","","","","","","","","","","","","","","","","","","","","","","","","","","","","","","","","","",""
"","iti_localizer","","html-keyboard-response","69","885277","0.0-2.0-2.6-1.6","28","70701","female","null","","","","null","","0","","","884891","0","","","","","","300","4600","386","4951","300","","","","","","","","","","","","","","","","","","","","","","","","","","","","","","","","","","","","","","","","","","","","","","","","","","","","",""
"","localizer","","html-keyboard-response","70","885690","0.0-2.0-3.0-0.0","28","70701","female","9","","","","68","0","1","","Stimuli/Practice_stims/Localizer/becca-tapert-sY5RjMB1KkE-unsplash.jpg","885277","0","NaN","","0","0","1","400","4900","413","5337","","","","","","","","","","","","","","","","","","","","","","","","","","","","","","","","","","","","","","","","","","","","","","","","","","","","","",""
"","iti_localizer","","html-keyboard-response","71","886010","0.0-2.0-3.0-1.0","28","70701","female","null","","","","null","","1","","","885690","0","","","","","","300","5300","320","5750","300","","","","","","","","","","","","","","","","","","","","","","","","","","","","","","","","","","","","","","","","","","","","","","","","","","","","",""
"","localizer","","html-keyboard-response","72","886470","0.0-2.0-4.0-0.0","28","70701","female","NaN","","","","null","NaN","2","","Stimuli/Practice_stims/Localizer/charl-durand-bsfXvI25iNg-unsplash.jpg","886010","0","NaN","","1","1","0","400","5600","460","6070","","","","","","","","","","","","","","","","","","","","","","","","","","","","","","","","","","","","","","","","","","","","","","","","","","","","","",""
"","iti_localizer","","html-keyboard-response","73","886806","0.0-2.0-4.0-1.0","28","70701","female","null","","","","null","","2","","","886470","0","","","","","","300","6000","336","6530","300","","","","","","","","","","","","","","","","","","","","","","","","","","","","","","","","","","","","","","","","","","","","","","","","","","","","",""
"","localizer","","html-keyboard-response","74","887216","0.0-2.0-4.1-0.1","28","70701","female","NaN","","","","null","NaN","2","","Stimuli/Practice_stims/Localizer/charl-durand-bsfXvI25iNg-unsplash.jpg","886806","0","NaN","","1","1","0","400","6300","410","6866","","","","","","","","","","","","","","","","","","","","","","","","","","","","","","","","","","","","","","","","","","","","","","","","","","","","","",""
"","iti_localizer","","html-keyboard-response","75","887536","0.0-2.0-4.1-1.1","28","70701","female","null","","","","null","","2","","","887216","0","","","","","","300","6700","320","7276","300","","","","","","","","","","","","","","","","","","","","","","","","","","","","","","","","","","","","","","","","","","","","","","","","","","","","",""
"","localizer","","html-keyboard-response","76","887959","0.0-2.0-4.2-0.2","28","70701","female","NaN","","","","null","NaN","2","","Stimuli/Practice_stims/Localizer/charl-durand-bsfXvI25iNg-unsplash.jpg","887536","0","NaN","","1","1","0","400","7000","423","7596","","","","","","","","","","","","","","","","","","","","","","","","","","","","","","","","","","","","","","","","","","","","","","","","","","","","","",""
"","iti_localizer","","html-keyboard-response","77","888283","0.0-2.0-4.2-1.2","28","70701","female","null","","","","null","","2","","","887959","0","","","","","","300","7400","324","8019","300","","","","","","","","","","","","","","","","","","","","","","","","","","","","","","","","","","","","","","","","","","","","","","","","","","","","",""
"","localizer","","html-keyboard-response","78","888704","0.0-2.0-4.3-0.3","28","70701","female","NaN","","","","null","NaN","2","","Stimuli/Practice_stims/Localizer/charl-durand-bsfXvI25iNg-unsplash.jpg","888283","0","NaN","","1","1","0","400","7700","421","8343","","","","","","","","","","","","","","","","","","","","","","","","","","","","","","","","","","","","","","","","","","","","","","","","","","","","","",""
"","iti_localizer","","html-keyboard-response","79","889272","0.0-2.0-4.3-1.3","28","70701","female","null","","","","null","","2","","","888704","0","","","","","","300","8100","568","8764","300","","","","","","","","","","","","","","","","","","","","","","","","","","","","","","","","","","","","","","","","","","","","","","","","","","","","",""
"","localizer","","html-keyboard-response","80","889690","0.0-2.0-4.4-0.4","28","70701","female","NaN","","","","null","NaN","2","","Stimuli/Practice_stims/Localizer/charl-durand-bsfXvI25iNg-unsplash.jpg","889272","0","NaN","","1","1","0","400","8400","418","9332","","","","","","","","","","","","","","","","","","","","","","","","","","","","","","","","","","","","","","","","","","","","","","","","","","","","","",""
"","iti_localizer","","html-keyboard-response","81","890087","0.0-2.0-4.4-1.4","28","70701","female","null","","","","null","","2","","","889690","0","","","","","","300","8800","397","9750","300","","","","","","","","","","","","","","","","","","","","","","","","","","","","","","","","","","","","","","","","","","","","","","","","","","","","",""
"","localizer","","html-keyboard-response","82","890513","0.0-2.0-4.5-0.5","28","70701","female","NaN","","","","null","NaN","2","","Stimuli/Practice_stims/Localizer/charl-durand-bsfXvI25iNg-unsplash.jpg","890087","0","NaN","","1","1","0","400","9100","426","10147","","","","","","","","","","","","","","","","","","","","","","","","","","","","","","","","","","","","","","","","","","","","","","","","","","","","","",""
"","iti_localizer","","html-keyboard-response","83","890829","0.0-2.0-4.5-1.5","28","70701","female","null","","","","null","","2","","","890513","0","","","","","","300","9500","316","10573","300","","","","","","","","","","","","","","","","","","","","","","","","","","","","","","","","","","","","","","","","","","","","","","","","","","","","",""
"","localizer","","html-keyboard-response","84","891271","0.0-2.0-4.6-0.6","28","70701","female","NaN","","","","null","NaN","2","","Stimuli/Practice_stims/Localizer/charl-durand-bsfXvI25iNg-unsplash.jpg","890829","0","NaN","","1","1","0","400","9800","442","10889","","","","","","","","","","","","","","","","","","","","","","","","","","","","","","","","","","","","","","","","","","","","","","","","","","","","","",""
"","iti_localizer","","html-keyboard-response","85","891584","0.0-2.0-4.6-1.6","28","70701","female","null","","","","null","","2","","","891271","0","","","","","","300","10200","313","11331","300","","","","","","","","","","","","","","","","","","","","","","","","","","","","","","","","","","","","","","","","","","","","","","","","","","","","",""
"","localizer","","html-keyboard-response","86","892012","0.0-2.0-4.7-0.7","28","70701","female","NaN","","","","null","NaN","2","","Stimuli/Practice_stims/Localizer/charl-durand-bsfXvI25iNg-unsplash.jpg","891584","0","NaN","","1","1","0","400","10500","428","11644","","","","","","","","","","","","","","","","","","","","","","","","","","","","","","","","","","","","","","","","","","","","","","","","","","","","","",""
"","iti_localizer","","html-keyboard-response","87","892326","0.0-2.0-4.7-1.7","28","70701","female","null","","","","null","","2","","","892012","0","","","","","","300","10900","314","12072","300","","","","","","","","","","","","","","","","","","","","","","","","","","","","","","","","","","","","","","","","","","","","","","","","","","","","",""
"","localizer","","html-keyboard-response","88","892775","0.0-2.0-4.8-0.8","28","70701","female","NaN","","","","null","NaN","2","","Stimuli/Practice_stims/Localizer/charl-durand-bsfXvI25iNg-unsplash.jpg","892326","0","NaN","","1","1","0","400","11200","449","12386","","","","","","","","","","","","","","","","","","","","","","","","","","","","","","","","","","","","","","","","","","","","","","","","","","","","","",""
"","iti_localizer","","html-keyboard-response","89","893092","0.0-2.0-4.8-1.8","28","70701","female","null","","","","null","","2","","","892775","0","","","","","","300","11600","317","12835","300","","","","","","","","","","","","","","","","","","","","","","","","","","","","","","","","","","","","","","","","","","","","","","","","","","","","",""
"","localizer","","html-keyboard-response","90","893514","0.0-2.0-4.9-0.9","28","70701","female","NaN","","","","null","NaN","2","","Stimuli/Practice_stims/Localizer/charl-durand-bsfXvI25iNg-unsplash.jpg","893092","0","NaN","","1","1","0","400","11900","422","13152","","","","","","","","","","","","","","","","","","","","","","","","","","","","","","","","","","","","","","","","","","","","","","","","","","","","","",""
"","iti_localizer","","html-keyboard-response","91","893867","0.0-2.0-4.9-1.9","28","70701","female","null","","","","null","","2","","","893514","0","","","","","","300","12300","353","13574","300","","","","","","","","","","","","","","","","","","","","","","","","","","","","","","","","","","","","","","","","","","","","","","","","","","","","",""
"","localizer","","html-keyboard-response","92","894283","0.0-2.0-4.10-0.10","28","70701","female","NaN","","","","null","NaN","2","","Stimuli/Practice_stims/Localizer/charl-durand-bsfXvI25iNg-unsplash.jpg","893867","0","NaN","","1","1","0","400","12600","416","13927","","","","","","","","","","","","","","","","","","","","","","","","","","","","","","","","","","","","","","","","","","","","","","","","","","","","","",""
"","iti_localizer","","html-keyboard-response","93","894598","0.0-2.0-4.10-1.10","28","70701","female","null","","","","null","","2","","","894283","0","","","","","","300","13000","315","14343","300","","","","","","","","","","","","","","","","","","","","","","","","","","","","","","","","","","","","","","","","","","","","","","","","","","","","",""
"","localizer","","html-keyboard-response","94","895014","0.0-2.0-4.11-0.11","28","70701","female","NaN","","","","null","NaN","2","","Stimuli/Practice_stims/Localizer/charl-durand-bsfXvI25iNg-unsplash.jpg","894598","0","NaN","","1","1","0","400","13300","416","14658","","","","","","","","","","","","","","","","","","","","","","","","","","","","","","","","","","","","","","","","","","","","","","","","","","","","","",""
"","iti_localizer","","html-keyboard-response","95","895326","0.0-2.0-4.11-1.11","28","70701","female","null","","","","null","","2","","","895014","0","","","","","","300","13700","312","15074","300","","","","","","","","","","","","","","","","","","","","","","","","","","","","","","","","","","","","","","","","","","","","","","","","","","","","",""
"","localizer","","html-keyboard-response","96","895738","0.0-2.0-4.12-0.12","28","70701","female","NaN","","","","null","NaN","2","","Stimuli/Practice_stims/Localizer/charl-durand-bsfXvI25iNg-unsplash.jpg","895326","0","NaN","","1","1","0","400","14000","412","15386","","","","","","","","","","","","","","","","","","","","","","","","","","","","","","","","","","","","","","","","","","","","","","","","","","","","","",""
"","iti_localizer","","html-keyboard-response","97","896077","0.0-2.0-4.12-1.12","28","70701","female","null","","","","null","","2","","","895738","0","","","","","","300","14400","339","15798","300","","","","","","","","","","","","","","","","","","","","","","","","","","","","","","","","","","","","","","","","","","","","","","","","","","","","",""
"","localizer","","html-keyboard-response","98","896499","0.0-2.0-4.13-0.13","28","70701","female","NaN","","","","null","NaN","2","","Stimuli/Practice_stims/Localizer/charl-durand-bsfXvI25iNg-unsplash.jpg","896077","0","NaN","","1","1","0","400","14700","422","16137","","","","","","","","","","","","","","","","","","","","","","","","","","","","","","","","","","","","","","","","","","","","","","","","","","","","","",""
"","iti_localizer","","html-keyboard-response","99","896858","0.0-2.0-4.13-1.13","28","70701","female","null","","","","null","","2","","","896499","0","","","","","","300","15100","359","16559","300","","","","","","","","","","","","","","","","","","","","","","","","","","","","","","","","","","","","","","","","","","","","","","","","","","","","",""
"","localizer","","html-keyboard-response","100","897312","0.0-2.0-4.14-0.14","28","70701","female","28","","","","75","1","2","","Stimuli/Practice_stims/Localizer/charl-durand-bsfXvI25iNg-unsplash.jpg","896858","0","NaN","","1","0","1","400","15400","454","16918","","","","","","","","","","","","","","","","","","","","","","","","","","","","","","","","","","","","","","","","","","","","","","","","","","","","","",""
"","iti_localizer","","html-keyboard-response","101","897652","0.0-2.0-4.14-1.14","28","70701","female","null","","","","null","","2","","","897312","0","","","","","","300","15800","340","17372","300","","","","","","","","","","","","","","","","","","","","","","","","","","","","","","","","","","","","","","","","","","","","","","","","","","","","",""
"","localizer","","html-keyboard-response","102","898072","0.0-2.0-5.0-0.0","28","70701","female","NaN","","","","null","NaN","3","","Stimuli/Practice_stims/Localizer/nizar-albusaidy-B2r2SWAf5CE-unsplash.jpg","897652","0","NaN","","0","1","0","400","16100","420","17712","","","","","","","","","","","","","","","","","","","","","","","","","","","","","","","","","","","","","","","","","","","","","","","","","","","","","",""
"","iti_localizer","","html-keyboard-response","103","898383","0.0-2.0-5.0-1.0","28","70701","female","null","","","","null","","3","","","898072","0","","","","","","300","16500","311","18132","300","","","","","","","","","","","","","","","","","","","","","","","","","","","","","","","","","","","","","","","","","","","","","","","","","","","","",""
"","localizer","","html-keyboard-response","104","898794","0.0-2.0-5.1-0.1","28","70701","female","210","","","","68","0","3","","Stimuli/Practice_stims/Localizer/nizar-albusaidy-B2r2SWAf5CE-unsplash.jpg","898383","0","NaN","","0","0","1","400","16800","411","18443","","","","","","","","","","","","","","","","","","","","","","","","","","","","","","","","","","","","","","","","","","","","","","","","","","","","","",""
"","iti_localizer","","html-keyboard-response","105","899125","0.0-2.0-5.1-1.1","28","70701","female","null","","","","null","","3","","","898794","0","","","","","","300","17200","331","18854","300","","","","","","","","","","","","","","","","","","","","","","","","","","","","","","","","","","","","","","","","","","","","","","","","","","","","",""
"","localizer","","html-keyboard-response","106","899544","0.0-2.0-6.0-0.0","28","70701","female","76","","","","68","0","4","","Stimuli/Practice_stims/Localizer/randy-fath-epf1tdtIIkM-unsplash.jpg","899125","0","NaN","","1","0","0","400","17500","419","19185","","","","","","","","","","","","","","","","","","","","","","","","","","","","","","","","","","","","","","","","","","","","","","","","","","","","","",""
"","iti_localizer","","html-keyboard-response","107","899860","0.0-2.0-6.0-1.0","28","70701","female","null","","","","null","","4","","","899544","0","","","","","","300","17900","316","19604","300","","","","","","","","","","","","","","","","","","","","","","","","","","","","","","","","","","","","","","","","","","","","","","","","","","","","",""
"","localizer","","html-keyboard-response","108","900296","0.0-2.0-7.0-0.0","28","70701","female","200","","","","75","1","5","","Stimuli/Practice_stims/Localizer/yassine-khalfalli-adsQ9d_Cx0c-unsplash.jpg","899860","0","NaN","","0","0","0","400","18200","436","19920","","","","","","","","","","","","","","","","","","","","","","","","","","","","","","","","","","","","","","","","","","","","","","","","","","","","","",""
"","iti_localizer","","html-keyboard-response","109","900627","0.0-2.0-7.0-1.0","28","70701","female","null","","","","null","","5","","","900296","0","","","","","","300","18600","331","20356","300","","","","","","","","","","","","","","","","","","","","","","","","","","","","","","","","","","","","","","","","","","","","","","","","","","","","",""
"","practice_over","","html-keyboard-response","110","900826","0.0-2.0-7.0-2.0-0.0","28","70701","female","189","","","","68","","","","","","","","","","","","","","","","","","","","","","","","","","","","","","","","","","","","","","","","","","","","","","","","","","","","","","","","","","","","","","","","","","","","",""
"","start_run","","html-keyboard-response","111","903454","0.0-2.0-7.0-2.0-1.0","28","70701","female","2617","","","","84","","","","","","","","","","","","","","","","","","","","","","","","","","","","","","","","","","","","","","","","","","","","","","","","","","","","","","","","","","","","","","","","","","","","",""
"","localizer","","html-keyboard-response","112","903868","0.0-2.0-8.0-0.0","28","70701","female","NaN","","","","null","NaN","6","","Stimuli/Experimental_stims/localizer/body_parts/igordoon-primus-CdyHqfrbGIs-unsplash.jpg","903454","1","body_parts","","0","1","0","400","0","414","0","","","","","","","","","","","","","","","","","","","","","","","","","","","","","","","","","","","","","","","","","","","","","","","","","","","","","",""
"","iti_localizer","","html-keyboard-response","113","904255","0.0-2.0-8.0-1.0","28","70701","female","null","","","","null","","6","","","903868","1","","","","","","300","400","387","414","300","","","","","","","","","","","","","","","","","","","","","","","","","","","","","","","","","","","","","","","","","","","","","","","","","","","","",""
"","localizer","","html-keyboard-response","114","904680","0.0-2.0-9.0-0.0","28","70701","female","264","","","","68","0","7","","Stimuli/Experimental_stims/localizer/body_parts/jonathan-borba-hTwH8QFkPMs-unsplash.jpg","904255","1","body_parts","","0","0","1","400","700","425","801","","","","","","","","","","","","","","","","","","","","","","","","","","","","","","","","","","","","","","","","","","","","","","","","","","","","","",""
"","iti_localizer","","html-keyboard-response","115","904994","0.0-2.0-9.0-1.0","28","70701","female","null","","","","null","","7","","","904680","1","","","","","","300","1100","314","1226","300","","","","","","","","","","","","","","","","","","","","","","","","","","","","","","","","","","","","","","","","","","","","","","","","","","","","",""
"","localizer","","html-keyboard-response","116","905482","0.0-2.0-10.0-0.0","28","70701","female","130","","","","68","0","8","","Stimuli/Experimental_stims/localizer/body_parts/marcel-fagin-OUYg0Q3ec-Y-unsplash.jpg","904994","1","body_parts","","1","0","0","400","1400","488","1540","","","","","","","","","","","","","","","","","","","","","","","","","","","","","","","","","","","","","","","","","","","","","","","","","","","","","",""
"","iti_localizer","","html-keyboard-response","117","905831","0.0-2.0-10.0-1.0","28","70701","female","null","","","","null","","8","","","905482","1","","","","","","300","1800","349","2028","300","","","","","","","","","","","","","","","","","","","","","","","","","","","","","","","","","","","","","","","","","","","","","","","","","","","","",""
"","localizer","","html-keyboard-response","118","906249","0.0-2.0-11.0-0.0","28","70701","female","19","","","","68","0","9","","Stimuli/Experimental_stims/localizer/body_parts/anelya-okapova-V69kmOyZ3SU-unsplash.jpg","905831","1","body_parts","","0","0","1","400","2100","418","2377","","","","","","","","","","","","","","","","","","","","","","","","","","","","","","","","","","","","","","","","","","","","","","","","","","","","","",""
"","iti_localizer","","html-keyboard-response","119","906573","0.0-2.0-11.0-1.0","28","70701","female","null","","","","null","","9","","","906249","1","","","","","","300","2500","324","2795","300","","","","","","","","","","","","","","","","","","","","","","","","","","","","","","","","","","","","","","","","","","","","","","","","","","","","",""
"","localizer","","html-keyboard-response","120","906987","0.0-2.0-12.0-0.0","28","70701","female","83","","","","68","0","10","","Stimuli/Experimental_stims/localizer/body_parts/jan-romero-DL4DDQb8yjc-unsplash.jpg","906573","1","body_parts","","0","0","1","400","2800","414","3119","","","","","","","","","","","","","","","","","","","","","","","","","","","","","","","","","","","","","","","","","","","","","","","","","","","","","",""
"","iti_localizer","","html-keyboard-response","121","907296","0.0-2.0-12.0-1.0","28","70701","female","null","","","","null","","10","","","906987","1","","","","","","300","3200","309","3533","300","","","","","","","","","","","","","","","","","","","","","","","","","","","","","","","","","","","","","","","","","","","","","","","","","","","","",""
"","localizer","","html-keyboard-response","122","907719","0.0-2.0-13.0-0.0","28","70701","female","103","","","","68","0","11","","Stimuli/Experimental_stims/localizer/body_parts/pure-julia-9lVaya31sMk-unsplash.jpg","907296","1","body_parts","","0","0","1","400","3500","423","3842","","","","","","","","","","","","","","","","","","","","","","","","","","","","","","","","","","","","","","","","","","","","","","","","","","","","","",""
"","iti_localizer","","html-keyboard-response","123","908061","0.0-2.0-13.0-1.0","28","70701","female","null","","","","null","","11","","","907719","1","","","","","","300","3900","342","4265","300","","","","","","","","","","","","","","","","","","","","","","","","","","","","","","","","","","","","","","","","","","","","","","","","","","","","",""
"","localizer","","html-keyboard-response","124","908483","0.0-2.0-14.0-0.0","28","70701","female","16","","","","68","0","12","","Stimuli/Experimental_stims/localizer/body_parts/jasper-garratt-Ng_Kl7K6V8Y-unsplash.jpg","908061","1","body_parts","","0","0","1","400","4200","422","4607","","","","","","","","","","","","","","","","","","","","","","","","","","","","","","","","","","","","","","","","","","","","","","","","","","","","","",""
"","iti_localizer","","html-keyboard-response","125","908805","0.0-2.0-14.0-1.0","28","70701","female","null","","","","null","","12","","","908483","1","","","","","","300","4600","322","5029","300","","","","","","","","","","","","","","","","","","","","","","","","","","","","","","","","","","","","","","","","","","","","","","","","","","","","",""
"","localizer","","html-keyboard-response","126","909262","0.0-2.0-15.0-0.0","28","70701","female","NaN","","","","null","NaN","13","","Stimuli/Experimental_stims/localizer/body_parts/i-am_nah--S4OsO0c6Ts-unsplash.jpg","908805","1","body_parts","","0","1","0","400","4900","457","5351","","","","","","","","","","","","","","","","","","","","","","","","","","","","","","","","","","","","","","","","","","","","","","","","","","","","","",""
"","iti_localizer","","html-keyboard-response","127","909571","0.0-2.0-15.0-1.0","28","70701","female","null","","","","null","","13","","","909262","1","","","","","","300","5300","309","5808","300","","","","","","","","","","","","","","","","","","","","","","","","","","","","","","","","","","","","","","","","","","","","","","","","","","","","",""
"","localizer","","html-keyboard-response","128","909993","0.0-2.0-16.0-0.0","28","70701","female","NaN","","","","null","NaN","14","","Stimuli/Experimental_stims/localizer/body_parts/femme-spirit-RGYBDUHYbyM-unsplash.jpg","909571","1","body_parts","","0","1","0","400","5600","422","6117","","","","","","","","","","","","","","","","","","","","","","","","","","","","","","","","","","","","","","","","","","","","","","","","","","","","","",""
"","iti_localizer","","html-keyboard-response","129","910312","0.0-2.0-16.0-1.0","28","70701","female","null","","","","null","","14","","","909993","1","","","","","","300","6000","319","6539","300","","","","","","","","","","","","","","","","","","","","","","","","","","","","","","","","","","","","","","","","","","","","","","","","","","","","",""
"","localizer","","html-keyboard-response","130","910744","0.0-2.0-17.0-0.0","28","70701","female","NaN","","","","null","NaN","15","","Stimuli/Experimental_stims/localizer/body_parts/liv-bruce-M0oVPGsWk1E-unsplash.jpg","910312","1","body_parts","","0","1","0","400","6300","432","6858","","","","","","","","","","","","","","","","","","","","","","","","","","","","","","","","","","","","","","","","","","","","","","","","","","","","","",""
"","iti_localizer","","html-keyboard-response","131","911063","0.0-2.0-17.0-1.0","28","70701","female","null","","","","null","","15","","","910744","1","","","","","","300","6700","319","7290","300","","","","","","","","","","","","","","","","","","","","","","","","","","","","","","","","","","","","","","","","","","","","","","","","","","","","",""
"","localizer","","html-keyboard-response","132","911719","0.0-2.0-18.0-0.0","28","70701","female","1","","","","68","0","16","","Stimuli/Experimental_stims/localizer/body_parts/bady-abbas-N-VEeMnm7gE-unsplash.jpg","911063","1","body_parts","","0","0","1","400","7000","656","7609","","","","","","","","","","","","","","","","","","","","","","","","","","","","","","","","","","","","","","","","","","","","","","","","","","","","","",""
"","iti_localizer","","html-keyboard-response","133","912041","0.0-2.0-18.0-1.0","28","70701","female","null","","","","null","","16","","","911719","1","","","","","","300","7400","322","8265","300","","","","","","","","","","","","","","","","","","","","","","","","","","","","","","","","","","","","","","","","","","","","","","","","","","","","",""
"","localizer","","html-keyboard-response","134","912459","0.0-2.0-19.0-0.0","28","70701","female","NaN","","","","null","NaN","17","","Stimuli/Experimental_stims/localizer/body_parts/lucaxx-freire-CacZwMexYdk-unsplash.jpg","912041","1","body_parts","","0","1","0","400","7700","418","8587","","","","","","","","","","","","","","","","","","","","","","","","","","","","","","","","","","","","","","","","","","","","","","","","","","","","","",""
"","iti_localizer","","html-keyboard-response","135","912858","0.0-2.0-19.0-1.0","28","70701","female","null","","","","null","","17","","","912459","1","","","","","","300","8100","399","9005","300","","","","","","","","","","","","","","","","","","","","","","","","","","","","","","","","","","","","","","","","","","","","","","","","","","","","",""
"","localizer","","html-keyboard-response","136","913282","0.0-2.0-20.0-0.0","28","70701","female","NaN","","","","null","NaN","18","","Stimuli/Experimental_stims/localizer/body_parts/hu-chen-tCbTGNwrFNM-unsplash.jpg","912858","1","body_parts","","0","1","0","400","8400","424","9404","","","","","","","","","","","","","","","","","","","","","","","","","","","","","","","","","","","","","","","","","","","","","","","","","","","","","",""
"","iti_localizer","","html-keyboard-response","137","913600","0.0-2.0-20.0-1.0","28","70701","female","null","","","","null","","18","","","913282","1","","","","","","300","8800","318","9828","300","","","","","","","","","","","","","","","","","","","","","","","","","","","","","","","","","","","","","","","","","","","","","","","","","","","","",""
"","localizer","","html-keyboard-response","138","914071","0.0-2.0-21.0-0.0","28","70701","female","NaN","","","","null","NaN","19","","Stimuli/Experimental_stims/localizer/body_parts/megan-menegay-UojxG_BJxnI-unsplash.jpg","913600","1","body_parts","","0","1","0","400","9100","471","10146","","","","","","","","","","","","","","","","","","","","","","","","","","","","","","","","","","","","","","","","","","","","","","","","","","","","","",""
"","iti_localizer","","html-keyboard-response","139","914408","0.0-2.0-21.0-1.0","28","70701","female","null","","","","null","","19","","","914071","1","","","","","","300","9500","337","10617","300","","","","","","","","","","","","","","","","","","","","","","","","","","","","","","","","","","","","","","","","","","","","","","","","","","","","",""
"","localizer","","html-keyboard-response","140","914831","0.0-2.0-22.0-0.0","28","70701","female","NaN","","","","null","NaN","20","","Stimuli/Experimental_stims/localizer/body_parts/toan-nguyen-VIeLuUFzesg-unsplash.jpg","914408","1","body_parts","","1","1","0","400","9800","423","10954","","","","","","","","","","","","","","","","","","","","","","","","","","","","","","","","","","","","","","","","","","","","","","","","","","","","","",""
"","iti_localizer","","html-keyboard-response","141","915141","0.0-2.0-22.0-1.0","28","70701","female","null","","","","null","","20","","","914831","1","","","","","","300","10200","310","11377","300","","","","","","","","","","","","","","","","","","","","","","","","","","","","","","","","","","","","","","","","","","","","","","","","","","","","",""
"","localizer","","html-keyboard-response","142","915591","0.0-2.0-23.0-0.0","28","70701","female","NaN","","","","null","NaN","21","","Stimuli/Experimental_stims/localizer/body_parts/sippakorn-yamkasikorn-32_sJlJa5gA-unsplash.jpg","915141","1","body_parts","","0","1","0","400","10500","450","11687","","","","","","","","","","","","","","","","","","","","","","","","","","","","","","","","","","","","","","","","","","","","","","","","","","","","","",""
"","iti_localizer","","html-keyboard-response","143","915910","0.0-2.0-23.0-1.0","28","70701","female","null","","","","null","","21","","","915591","1","","","","","","300","10900","319","12137","300","","","","","","","","","","","","","","","","","","","","","","","","","","","","","","","","","","","","","","","","","","","","","","","","","","","","",""
"","localizer","","html-keyboard-response","144","916328","0.0-2.0-24.0-0.0","28","70701","female","NaN","","","","null","NaN","22","","Stimuli/Experimental_stims/localizer/body_parts/louis-hansel-FjKTMRTQYAs-unsplash.jpg","915910","1","body_parts","","0","1","0","400","11200","418","12456","","","","","","","","","","","","","","","","","","","","","","","","","","","","","","","","","","","","","","","","","","","","","","","","","","","","","",""
"","iti_localizer","","html-keyboard-response","145","916859","0.0-2.0-24.0-1.0","28","70701","female","null","","","","null","","22","","","916328","1","","","","","","300","11600","531","12874","300","","","","","","","","","","","","","","","","","","","","","","","","","","","","","","","","","","","","","","","","","","","","","","","","","","","","",""
"","localizer","","html-keyboard-response","146","917272","0.0-2.0-25.0-0.0","28","70701","female","51","","","","68","0","23","","Stimuli/Experimental_stims/localizer/body_parts/sydney-herron-b2W04fGuS70-unsplash.jpg","916859","1","body_parts","","0","0","1","400","11900","413","13405","","","","","","","","","","","","","","","","","","","","","","","","","","","","","","","","","","","","","","","","","","","","","","","","","","","","","",""
"","iti_localizer","","html-keyboard-response","147","917595","0.0-2.0-25.0-1.0","28","70701","female","null","","","","null","","23","","","917272","1","","","","","","300","12300","323","13818","300","","","","","","","","","","","","","","","","","","","","","","","","","","","","","","","","","","","","","","","","","","","","","","","","","","","","",""
"","localizer","","html-keyboard-response","148","918012","0.0-2.0-26.0-0.0","28","70701","female","NaN","","","","null","NaN","24","","Stimuli/Experimental_stims/localizer/body_parts/danie-franco-jyyNiSEcCl4-unsplash.jpg","917595","1","body_parts","","0","1","0","400","12600","417","14141","","","","","","","","","","","","","","","","","","","","","","","","","","","","","","","","","","","","","","","","","","","","","","","","","","","","","",""
"","iti_localizer","","html-keyboard-response","149","918327","0.0-2.0-26.0-1.0","28","70701","female","null","","","","null","","24","","","918012","1","","","","","","300","13000","315","14558","300","","","","","","","","","","","","","","","","","","","","","","","","","","","","","","","","","","","","","","","","","","","","","","","","","","","","",""
"","localizer","","html-keyboard-response","150","918747","0.0-2.0-27.0-0.0","28","70701","female","NaN","","","","null","NaN","25","","Stimuli/Experimental_stims/localizer/body_parts/ramesh-iyer-CRhznMXoJlc-unsplash.jpg","918327","1","body_parts","","0","1","0","400","13300","420","14873","","","","","","","","","","","","","","","","","","","","","","","","","","","","","","","","","","","","","","","","","","","","","","","","","","","","","",""
"","iti_localizer","","html-keyboard-response","151","932789","0.0-2.0-27.0-1.0","28","70701","female","null","","","","null","","25","","","918747","1","","","","","","14000","13700","14042","15293","14000","","","","","","","","","","","","","","","","","","","","","","","","","","","","","","","","","","","","","","","","","","","","","","","","","","","","",""
"","localizer","","html-keyboard-response","152","933218","0.0-2.0-28.0-0.0","28","70701","female","NaN","","","","null","NaN","26","","Stimuli/Experimental_stims/localizer/objects/adriano-pucciarelli-BE7yaZnZX6o-unsplash.jpg","932789","1","objects","","0","1","0","400","27700","429","29335","","","","","","","","","","","","","","","","","","","","","","","","","","","","","","","","","","","","","","","","","","","","","","","","","","","","","",""
"","iti_localizer","","html-keyboard-response","153","933542","0.0-2.0-28.0-1.0","28","70701","female","null","","","","null","","26","","","933218","1","","","","","","300","28100","324","29764","300","","","","","","","","","","","","","","","","","","","","","","","","","","","","","","","","","","","","","","","","","","","","","","","","","","","","",""
"","localizer","","html-keyboard-response","154","933967","0.0-2.0-29.0-0.0","28","70701","female","333","","","","68","0","27","","Stimuli/Experimental_stims/localizer/objects/petr-sidorov-3jm5TGqtULU-unsplash.jpg","933542","1","objects","","0","0","1","400","28400","425","30088","","","","","","","","","","","","","","","","","","","","","","","","","","","","","","","","","","","","","","","","","","","","","","","","","","","","","",""
"","iti_localizer","","html-keyboard-response","155","934341","0.0-2.0-29.0-1.0","28","70701","female","null","","","","null","","27","","","933967","1","","","","","","300","28800","374","30513","300","","","","","","","","","","","","","","","","","","","","","","","","","","","","","","","","","","","","","","","","","","","","","","","","","","","","",""
"","localizer","","html-keyboard-response","156","934758","0.0-2.0-30.0-0.0","28","70701","female","129","","","","68","0","28","","Stimuli/Experimental_stims/localizer/objects/carlos-felipe-ramirez-mesa-HW7bfB3ERSQ-unsplash.jpg","934341","1","objects","","0","0","1","400","29100","417","30887","","","","","","","","","","","","","","","","","","","","","","","","","","","","","","","","","","","","","","","","","","","","","","","","","","","","","",""
"","iti_localizer","","html-keyboard-response","157","935070","0.0-2.0-30.0-1.0","28","70701","female","null","","","","null","","28","","","934758","1","","","","","","300","29500","312","31304","300","","","","","","","","","","","","","","","","","","","","","","","","","","","","","","","","","","","","","","","","","","","","","","","","","","","","",""
"","localizer","","html-keyboard-response","158","935481","0.0-2.0-31.0-0.0","28","70701","female","55","","","","68","0","29","","Stimuli/Experimental_stims/localizer/objects/raimond-klavins-ZdvDPXVvcKs-unsplash.jpg","935070","1","objects","","1","0","0","400","29800","411","31616","","","","","","","","","","","","","","","","","","","","","","","","","","","","","","","","","","","","","","","","","","","","","","","","","","","","","",""
"","iti_localizer","","html-keyboard-response","159","935797","0.0-2.0-31.0-1.0","28","70701","female","null","","","","null","","29","","","935481","1","","","","","","300","30200","316","32027","300","","","","","","","","","","","","","","","","","","","","","","","","","","","","","","","","","","","","","","","","","","","","","","","","","","","","",""
"","localizer","","html-keyboard-response","160","936216","0.0-2.0-32.0-0.0","28","70701","female","NaN","","","","null","NaN","30","","Stimuli/Experimental_stims/localizer/objects/adriano-pucciarelli-Jl3S1yM8gi8-unsplash.jpg","935797","1","objects","","0","1","0","400","30500","419","32343","","","","","","","","","","","","","","","","","","","","","","","","","","","","","","","","","","","","","","","","","","","","","","","","","","","","","",""
"","iti_localizer","","html-keyboard-response","161","936535","0.0-2.0-32.0-1.0","28","70701","female","null","","","","null","","30","","","936216","1","","","","","","300","30900","319","32762","300","","","","","","","","","","","","","","","","","","","","","","","","","","","","","","","","","","","","","","","","","","","","","","","","","","","","",""
"","localizer","","html-keyboard-response","162","936955","0.0-2.0-33.0-0.0","28","70701","female","145","","","","68","0","31","","Stimuli/Experimental_stims/localizer/objects/engin-akyurt-bbbKzTmY2Gg-unsplash.jpg","936535","1","objects","","0","0","1","400","31200","420","33081","","","","","","","","","","","","","","","","","","","","","","","","","","","","","","","","","","","","","","","","","","","","","","","","","","","","","",""
"","iti_localizer","","html-keyboard-response","163","937282","0.0-2.0-33.0-1.0","28","70701","female","null","","","","null","","31","","","936955","1","","","","","","300","31600","327","33501","300","","","","","","","","","","","","","","","","","","","","","","","","","","","","","","","","","","","","","","","","","","","","","","","","","","","","",""
"","localizer","","html-keyboard-response","164","937709","0.0-2.0-34.0-0.0","28","70701","female","NaN","","","","null","NaN","32","","Stimuli/Experimental_stims/localizer/objects/sam-moghadam-khamseh-kvmdsTrGOBM-unsplash.jpg","937282","1","objects","","0","1","0","400","31900","427","33828","","","","","","","","","","","","","","","","","","","","","","","","","","","","","","","","","","","","","","","","","","","","","","","","","","","","","",""
"","iti_localizer","","html-keyboard-response","165","938066","0.0-2.0-34.0-1.0","28","70701","female","null","","","","null","","32","","","937709","1","","","","","","300","32300","357","34255","300","","","","","","","","","","","","","","","","","","","","","","","","","","","","","","","","","","","","","","","","","","","","","","","","","","","","",""
"","localizer","","html-keyboard-response","166","938488","0.0-2.0-35.0-0.0","28","70701","female","26","","","","68","0","33","","Stimuli/Experimental_stims/localizer/objects/jiangxulei1990-eIzzzwtkBjU-unsplash.jpg","938066","1","objects","","0","0","1","400","32600","422","34612","","","","","","","","","","","","","","","","","","","","","","","","","","","","","","","","","","","","","","","","","","","","","","","","","","","","","",""
"","iti_localizer","","html-keyboard-response","167","938809","0.0-2.0-35.0-1.0","28","70701","female","null","","","","null","","33","","","938488","1","","","","","","300","33000","321","35034","300","","","","","","","","","","","","","","","","","","","","","","","","","","","","","","","","","","","","","","","","","","","","","","","","","","","","",""
"","localizer","","html-keyboard-response","168","939249","0.0-2.0-36.0-0.0","28","70701","female","NaN","","","","null","NaN","34","","Stimuli/Experimental_stims/localizer/objects/florian-klauer-nptLmg6jqDo-unsplash.jpg","938809","1","objects","","0","1","0","400","33300","440","35355","","","","","","","","","","","","","","","","","","","","","","","","","","","","","","","","","","","","","","","","","","","","","","","","","","","","","",""
"","iti_localizer","","html-keyboard-response","169","939557","0.0-2.0-36.0-1.0","28","70701","female","null","","","","null","","34","","","939249","1","","","","","","300","33700","308","35795","300","","","","","","","","","","","","","","","","","","","","","","","","","","","","","","","","","","","","","","","","","","","","","","","","","","","","",""
"","localizer","","html-keyboard-response","170","939992","0.0-2.0-37.0-0.0","28","70701","female","NaN","","","","null","NaN","35","","Stimuli/Experimental_stims/localizer/objects/ignat-dolomanov-kFBDVnmskPA-unsplash.jpg","939557","1","objects","","0","1","0","400","34000","435","36103","","","","","","","","","","","","","","","","","","","","","","","","","","","","","","","","","","","","","","","","","","","","","","","","","","","","","",""
"","iti_localizer","","html-keyboard-response","171","940314","0.0-2.0-37.0-1.0","28","70701","female","null","","","","null","","35","","","939992","1","","","","","","300","34400","322","36538","300","","","","","","","","","","","","","","","","","","","","","","","","","","","","","","","","","","","","","","","","","","","","","","","","","","","","",""
"","localizer","","html-keyboard-response","172","940733","0.0-2.0-38.0-0.0","28","70701","female","NaN","","","","null","NaN","36","","Stimuli/Experimental_stims/localizer/objects/andrew-petrov-TVJqDat4MAw-unsplash.jpg","940314","1","objects","","0","1","0","400","34700","419","36860","","","","","","","","","","","","","","","","","","","","","","","","","","","","","","","","","","","","","","","","","","","","","","","","","","","","","",""
"","iti_localizer","","html-keyboard-response","173","941043","0.0-2.0-38.0-1.0","28","70701","female","null","","","","null","","36","","","940733","1","","","","","","300","35100","310","37279","300","","","","","","","","","","","","","","","","","","","","","","","","","","","","","","","","","","","","","","","","","","","","","","","","","","","","",""
"","localizer","","html-keyboard-response","174","941468","0.0-2.0-39.0-0.0","28","70701","female","NaN","","","","null","NaN","37","","Stimuli/Experimental_stims/localizer/objects/sam-moghadam-khamseh-L_7MQsHl_aU-unsplash.jpg","941043","1","objects","","0","1","0","400","35400","425","37589","","","","","","","","","","","","","","","","","","","","","","","","","","","","","","","","","","","","","","","","","","","","","","","","","","","","","",""
"","iti_localizer","","html-keyboard-response","175","941785","0.0-2.0-39.0-1.0","28","70701","female","null","","","","null","","37","","","941468","1","","","","","","300","35800","317","38014","300","","","","","","","","","","","","","","","","","","","","","","","","","","","","","","","","","","","","","","","","","","","","","","","","","","","","",""
"","localizer","","html-keyboard-response","176","942198","0.0-2.0-40.0-0.0","28","70701","female","NaN","","","","null","NaN","38","","Stimuli/Experimental_stims/localizer/objects/ana-9GmAaEMMKho-unsplash.jpg","941785","1","objects","","0","1","0","400","36100","413","38331","","","","","","","","","","","","","","","","","","","","","","","","","","","","","","","","","","","","","","","","","","","","","","","","","","","","","",""
"","iti_localizer","","html-keyboard-response","177","942533","0.0-2.0-40.0-1.0","28","70701","female","null","","","","null","","38","","","942198","1","","","","","","300","36500","335","38744","300","","","","","","","","","","","","","","","","","","","","","","","","","","","","","","","","","","","","","","","","","","","","","","","","","","","","",""
"","localizer","","html-keyboard-response","178","942948","0.0-2.0-41.0-0.0","28","70701","female","NaN","","","","null","NaN","39","","Stimuli/Experimental_stims/localizer/objects/mockup-graphics-U6ZMEefFGx8-unsplash.jpg","942533","1","objects","","0","1","0","400","36800","415","39079","","","","","","","","","","","","","","","","","","","","","","","","","","","","","","","","","","","","","","","","","","","","","","","","","","","","","",""
"","iti_localizer","","html-keyboard-response","179","943261","0.0-2.0-41.0-1.0","28","70701","female","null","","","","null","","39","","","942948","1","","","","","","300","37200","313","39494","300","","","","","","","","","","","","","","","","","","","","","","","","","","","","","","","","","","","","","","","","","","","","","","","","","","","","",""
"","localizer","","html-keyboard-response","180","943678","0.0-2.0-42.0-0.0","28","70701","female","NaN","","","","null","NaN","40","","Stimuli/Experimental_stims/localizer/objects/kelly-jean-cKjbI0Y00X0-unsplash.jpg","943261","1","objects","","0","1","0","400","37500","417","39807","","","","","","","","","","","","","","","","","","","","","","","","","","","","","","","","","","","","","","","","","","","","","","","","","","","","","",""
"","iti_localizer","","html-keyboard-response","181","944004","0.0-2.0-42.0-1.0","28","70701","female","null","","","","null","","40","","","943678","1","","","","","","300","37900","326","40224","300","","","","","","","","","","","","","","","","","","","","","","","","","","","","","","","","","","","","","","","","","","","","","","","","","","","","",""
"","localizer","","html-keyboard-response","182","944420","0.0-2.0-43.0-0.0","28","70701","female","NaN","","","","null","NaN","41","","Stimuli/Experimental_stims/localizer/objects/eugene-chystiakov-3neSwyntbQ8-unsplash.jpg","944004","1","objects","","0","1","0","400","38200","416","40550","","","","","","","","","","","","","","","","","","","","","","","","","","","","","","","","","","","","","","","","","","","","","","","","","","","","","",""
"","iti_localizer","","html-keyboard-response","183","944738","0.0-2.0-43.0-1.0","28","70701","female","null","","","","null","","41","","","944420","1","","","","","","300","38600","318","40966","300","","","","","","","","","","","","","","","","","","","","","","","","","","","","","","","","","","","","","","","","","","","","","","","","","","","","",""
"","localizer","","html-keyboard-response","184","945159","0.0-2.0-44.0-0.0","28","70701","female","NaN","","","","null","NaN","42","","Stimuli/Experimental_stims/localizer/objects/lance-reis-v0FYj9iioQg-unsplash.jpg","944738","1","objects","","0","1","0","400","38900","421","41284","","","","","","","","","","","","","","","","","","","","","","","","","","","","","","","","","","","","","","","","","","","","","","","","","","","","","",""
"","iti_localizer","","html-keyboard-response","185","945478","0.0-2.0-44.0-1.0","28","70701","female","null","","","","null","","42","","","945159","1","","","","","","300","39300","319","41705","300","","","","","","","","","","","","","","","","","","","","","","","","","","","","","","","","","","","","","","","","","","","","","","","","","","","","",""
"","localizer","","html-keyboard-response","186","945928","0.0-2.0-45.0-0.0","28","70701","female","NaN","","","","null","NaN","43","","Stimuli/Experimental_stims/localizer/objects/annie-spratt-fbAnIjhrOL4-unsplash.jpg","945478","1","objects","","0","1","0","400","39600","450","42024","","","","","","","","","","","","","","","","","","","","","","","","","","","","","","","","","","","","","","","","","","","","","","","","","","","","","",""
"","iti_localizer","","html-keyboard-response","187","946259","0.0-2.0-45.0-1.0","28","70701","female","null","","","","null","","43","","","945928","1","","","","","","300","40000","331","42474","300","","","","","","","","","","","","","","","","","","","","","","","","","","","","","","","","","","","","","","","","","","","","","","","","","","","","",""
"","localizer","","html-keyboard-response","188","946675","0.0-2.0-46.0-0.0","28","70701","female","NaN","","","","null","NaN","44","","Stimuli/Experimental_stims/localizer/objects/mockup-graphics-Pj2PY-E-LfM-unsplash.jpg","946259","1","objects","","1","1","0","400","40300","416","42805","","","","","","","","","","","","","","","","","","","","","","","","","","","","","","","","","","","","","","","","","","","","","","","","","","","","","",""
"","iti_localizer","","html-keyboard-response","189","946997","0.0-2.0-46.0-1.0","28","70701","female","null","","","","null","","44","","","946675","1","","","","","","300","40700","322","43221","300","","","","","","","","","","","","","","","","","","","","","","","","","","","","","","","","","","","","","","","","","","","","","","","","","","","","",""
"","localizer","","html-keyboard-response","190","947411","0.0-2.0-47.0-0.0","28","70701","female","NaN","","","","null","NaN","45","","Stimuli/Experimental_stims/localizer/objects/dario-mendez-hnJ2VNZzbns-unsplash.jpg","946997","1","objects","","0","1","0","400","41000","414","43543","","","","","","","","","","","","","","","","","","","","","","","","","","","","","","","","","","","","","","","","","","","","","","","","","","","","","",""
"","iti_localizer","","html-keyboard-response","191","961466","0.0-2.0-47.0-1.0","28","70701","female","null","","","","null","","45","","","947411","1","","","","","","14000","41400","14055","43957","14000","","","","","","","","","","","","","","","","","","","","","","","","","","","","","","","","","","","","","","","","","","","","","","","","","","","","",""
"","localizer","","html-keyboard-response","192","961887","0.0-2.0-48.0-0.0","28","70701","female","NaN","","","","null","NaN","46","","Stimuli/Experimental_stims/localizer/faces/christian-ferrer-8vT-DgHZDG4-unsplash.jpg","961466","1","faces","","1","1","0","400","55400","421","58012","","","","","","","","","","","","","","","","","","","","","","","","","","","","","","","","","","","","","","","","","","","","","","","","","","","","","",""
"","iti_localizer","","html-keyboard-response","193","962214","0.0-2.0-48.0-1.0","28","70701","female","null","","","","null","","46","","","961887","1","","","","","","300","55800","327","58433","300","","","","","","","","","","","","","","","","","","","","","","","","","","","","","","","","","","","","","","","","","","","","","","","","","","","","",""
"","localizer","","html-keyboard-response","194","962670","0.0-2.0-49.0-0.0","28","70701","female","NaN","","","","null","NaN","47","","Stimuli/Experimental_stims/localizer/faces/mathias-huysmans-U4JDjYmjn1g-unsplash.jpg","962214","1","faces","","0","1","0","400","56100","456","58760","","","","","","","","","","","","","","","","","","","","","","","","","","","","","","","","","","","","","","","","","","","","","","","","","","","","","",""
"","iti_localizer","","html-keyboard-response","195","962987","0.0-2.0-49.0-1.0","28","70701","female","null","","","","null","","47","","","962670","1","","","","","","300","56500","317","59216","300","","","","","","","","","","","","","","","","","","","","","","","","","","","","","","","","","","","","","","","","","","","","","","","","","","","","",""
"","localizer","","html-keyboard-response","196","963413","0.0-2.0-50.0-0.0","28","70701","female","NaN","","","","null","NaN","48","","Stimuli/Experimental_stims/localizer/faces/filipe-almeida-mnEWC72eWDM-unsplash.jpg","962987","1","faces","","0","1","0","400","56800","426","59533","","","","","","","","","","","","","","","","","","","","","","","","","","","","","","","","","","","","","","","","","","","","","","","","","","","","","",""
"","iti_localizer","","html-keyboard-response","197","963859","0.0-2.0-50.0-1.0","28","70701","female","null","","","","null","","48","","","963413","1","","","","","","300","57200","446","59959","300","","","","","","","","","","","","","","","","","","","","","","","","","","","","","","","","","","","","","","","","","","","","","","","","","","","","",""
"","localizer","","html-keyboard-response","198","964280","0.0-2.0-51.0-0.0","28","70701","female","51","","","","68","0","49","","Stimuli/Experimental_stims/localizer/faces/midas-hofstra-tidSLv-UaNs-unsplash.jpg","963859","1","faces","","0","0","1","400","57500","421","60405","","","","","","","","","","","","","","","","","","","","","","","","","","","","","","","","","","","","","","","","","","","","","","","","","","","","","",""
"","iti_localizer","","html-keyboard-response","199","964589","0.0-2.0-51.0-1.0","28","70701","female","null","","","","null","","49","","","964280","1","","","","","","300","57900","309","60826","300","","","","","","","","","","","","","","","","","","","","","","","","","","","","","","","","","","","","","","","","","","","","","","","","","","","","",""
"","localizer","","html-keyboard-response","200","965010","0.0-2.0-52.0-0.0","28","70701","female","NaN","","","","null","NaN","50","","Stimuli/Experimental_stims/localizer/faces/darshan-patel-QJEVpydulGs-unsplash.jpg","964589","1","faces","","0","1","0","400","58200","421","61135","","","","","","","","","","","","","","","","","","","","","","","","","","","","","","","","","","","","","","","","","","","","","","","","","","","","","",""
"","iti_localizer","","html-keyboard-response","201","965333","0.0-2.0-52.0-1.0","28","70701","female","null","","","","null","","50","","","965010","1","","","","","","300","58600","323","61556","300","","","","","","","","","","","","","","","","","","","","","","","","","","","","","","","","","","","","","","","","","","","","","","","","","","","","",""
"","localizer","","html-keyboard-response","202","965771","0.0-2.0-53.0-0.0","28","70701","female","NaN","","","","null","NaN","51","","Stimuli/Experimental_stims/localizer/faces/ivan-dodig-R21SyyJDFgc-unsplash.jpg","965333","1","faces","","0","1","0","400","58900","438","61879","","","","","","","","","","","","","","","","","","","","","","","","","","","","","","","","","","","","","","","","","","","","","","","","","","","","","",""
"","iti_localizer","","html-keyboard-response","203","966090","0.0-2.0-53.0-1.0","28","70701","female","null","","","","null","","51","","","965771","1","","","","","","300","59300","319","62317","300","","","","","","","","","","","","","","","","","","","","","","","","","","","","","","","","","","","","","","","","","","","","","","","","","","","","",""
"","localizer","","html-keyboard-response","204","966514","0.0-2.0-54.0-0.0","28","70701","female","NaN","","","","null","NaN","52","","Stimuli/Experimental_stims/localizer/faces/austin-wade-X6Uj51n5CE8-unsplash.jpg","966090","1","faces","","0","1","0","400","59600","424","62636","","","","","","","","","","","","","","","","","","","","","","","","","","","","","","","","","","","","","","","","","","","","","","","","","","","","","",""
"","iti_localizer","","html-keyboard-response","205","966840","0.0-2.0-54.0-1.0","28","70701","female","null","","","","null","","52","","","966514","1","","","","","","300","60000","326","63060","300","","","","","","","","","","","","","","","","","","","","","","","","","","","","","","","","","","","","","","","","","","","","","","","","","","","","",""
"","localizer","","html-keyboard-response","206","967251","0.0-2.0-55.0-0.0","28","70701","female","NaN","","","","null","NaN","53","","Stimuli/Experimental_stims/localizer/faces/linkedin-sales-solutions-pAtA8xe_iVM-unsplash.jpg","966840","1","faces","","0","1","0","400","60300","411","63386","","","","","","","","","","","","","","","","","","","","","","","","","","","","","","","","","","","","","","","","","","","","","","","","","","","","","",""
"","iti_localizer","","html-keyboard-response","207","967597","0.0-2.0-55.0-1.0","28","70701","female","null","","","","null","","53","","","967251","1","","","","","","300","60700","346","63797","300","","","","","","","","","","","","","","","","","","","","","","","","","","","","","","","","","","","","","","","","","","","","","","","","","","","","",""
"","localizer","","html-keyboard-response","208","968024","0.0-2.0-56.0-0.0","28","70701","female","NaN","","","","null","NaN","54","","Stimuli/Experimental_stims/localizer/faces/pavel-anoshin-d0peGya6R5Y-unsplash.jpg","967597","1","faces","","0","1","0","400","61000","427","64143","","","","","","","","","","","","","","","","","","","","","","","","","","","","","","","","","","","","","","","","","","","","","","","","","","","","","",""
"","iti_localizer","","html-keyboard-response","209","968336","0.0-2.0-56.0-1.0","28","70701","female","null","","","","null","","54","","","968024","1","","","","","","300","61400","312","64570","300","","","","","","","","","","","","","","","","","","","","","","","","","","","","","","","","","","","","","","","","","","","","","","","","","","","","",""
"","localizer","","html-keyboard-response","210","968788","0.0-2.0-57.0-0.0","28","70701","female","NaN","","","","null","NaN","55","","Stimuli/Experimental_stims/localizer/faces/jeffery-erhunse-vp9mRauo68c-unsplash.jpg","968336","1","faces","","0","1","0","400","61700","452","64882","","","","","","","","","","","","","","","","","","","","","","","","","","","","","","","","","","","","","","","","","","","","","","","","","","","","","",""
"","iti_localizer","","html-keyboard-response","211","969112","0.0-2.0-57.0-1.0","28","70701","female","null","","","","null","","55","","","968788","1","","","","","","300","62100","324","65334","300","","","","","","","","","","","","","","","","","","","","","","","","","","","","","","","","","","","","","","","","","","","","","","","","","","","","",""
"","localizer","","html-keyboard-response","212","969537","0.0-2.0-58.0-0.0","28","70701","female","NaN","","","","null","NaN","56","","Stimuli/Experimental_stims/localizer/faces/aatik-tasneem-7omHUGhhmZ0-unsplash.jpg","969112","1","faces","","0","1","0","400","62400","425","65658","","","","","","","","","","","","","","","","","","","","","","","","","","","","","","","","","","","","","","","","","","","","","","","","","","","","","",""
"","iti_localizer","","html-keyboard-response","213","969855","0.0-2.0-58.0-1.0","28","70701","female","null","","","","null","","56","","","969537","1","","","","","","300","62800","318","66083","300","","","","","","","","","","","","","","","","","","","","","","","","","","","","","","","","","","","","","","","","","","","","","","","","","","","","",""
"","localizer","","html-keyboard-response","214","970278","0.0-2.0-59.0-0.0","28","70701","female","302","","","","68","0","57","","Stimuli/Experimental_stims/localizer/faces/abstral-official-cyOKLSgkgCE-unsplash.jpg","969855","1","faces","","0","0","1","400","63100","423","66401","","","","","","","","","","","","","","","","","","","","","","","","","","","","","","","","","","","","","","","","","","","","","","","","","","","","","",""
"","iti_localizer","","html-keyboard-response","215","970603","0.0-2.0-59.0-1.0","28","70701","female","null","","","","null","","57","","","970278","1","","","","","","300","63500","325","66824","300","","","","","","","","","","","","","","","","","","","","","","","","","","","","","","","","","","","","","","","","","","","","","","","","","","","","",""
"","localizer","","html-keyboard-response","216","971037","0.0-2.0-60.0-0.0","28","70701","female","58","","","","68","0","58","","Stimuli/Experimental_stims/localizer/faces/brooke-cagle-Nm70URdtf3c-unsplash (1).jpg","970603","1","faces","","0","0","1","400","63800","434","67149","","","","","","","","","","","","","","","","","","","","","","","","","","","","","","","","","","","","","","","","","","","","","","","","","","","","","",""
"","iti_localizer","","html-keyboard-response","217","971409","0.0-2.0-60.0-1.0","28","70701","female","null","","","","null","","58","","","971037","1","","","","","","300","64200","372","67583","300","","","","","","","","","","","","","","","","","","","","","","","","","","","","","","","","","","","","","","","","","","","","","","","","","","","","",""
"","localizer","","html-keyboard-response","218","971840","0.0-2.0-61.0-0.0","28","70701","female","19","","","","68","0","59","","Stimuli/Experimental_stims/localizer/faces/icons8-team-6LZuSzSwso0-unsplash.jpg","971409","1","faces","","0","0","1","400","64500","431","67955","","","","","","","","","","","","","","","","","","","","","","","","","","","","","","","","","","","","","","","","","","","","","","","","","","","","","",""
"","iti_localizer","","html-keyboard-response","219","972165","0.0-2.0-61.0-1.0","28","70701","female","null","","","","null","","59","","","971840","1","","","","","","300","64900","325","68386","300","","","","","","","","","","","","","","","","","","","","","","","","","","","","","","","","","","","","","","","","","","","","","","","","","","","","",""
"","localizer","","html-keyboard-response","220","972641","0.0-2.0-62.0-0.0","28","70701","female","NaN","","","","null","NaN","60","","Stimuli/Experimental_stims/localizer/faces/christina-wocintechchat-com-0Zx1bDv5BNY-unsplash.jpg","972165","1","faces","","0","1","0","400","65200","476","68711","","","","","","","","","","","","","","","","","","","","","","","","","","","","","","","","","","","","","","","","","","","","","","","","","","","","","",""
"","iti_localizer","","html-keyboard-response","221","972962","0.0-2.0-62.0-1.0","28","70701","female","null","","","","null","","60","","","972641","1","","","","","","300","65600","321","69187","300","","","","","","","","","","","","","","","","","","","","","","","","","","","","","","","","","","","","","","","","","","","","","","","","","","","","",""
"","localizer","","html-keyboard-response","222","973384","0.0-2.0-63.0-0.0","28","70701","female","NaN","","","","null","NaN","61","","Stimuli/Experimental_stims/localizer/faces/juan-encalada-WC7KIHo13Fc-unsplash.jpg","972962","1","faces","","0","1","0","400","65900","422","69508","","","","","","","","","","","","","","","","","","","","","","","","","","","","","","","","","","","","","","","","","","","","","","","","","","","","","",""
"","iti_localizer","","html-keyboard-response","223","973753","0.0-2.0-63.0-1.0","28","70701","female","null","","","","null","","61","","","973384","1","","","","","","300","66300","369","69930","300","","","","","","","","","","","","","","","","","","","","","","","","","","","","","","","","","","","","","","","","","","","","","","","","","","","","",""
"","localizer","","html-keyboard-response","224","974168","0.0-2.0-64.0-0.0","28","70701","female","NaN","","","","null","NaN","62","","Stimuli/Experimental_stims/localizer/faces/nick-karvounis-JyO_szjGvUw-unsplash.jpg","973753","1","faces","","0","1","0","400","66600","415","70299","","","","","","","","","","","","","","","","","","","","","","","","","","","","","","","","","","","","","","","","","","","","","","","","","","","","","",""
"","iti_localizer","","html-keyboard-response","225","974480","0.0-2.0-64.0-1.0","28","70701","female","null","","","","null","","62","","","974168","1","","","","","","300","67000","312","70714","300","","","","","","","","","","","","","","","","","","","","","","","","","","","","","","","","","","","","","","","","","","","","","","","","","","","","",""
"","localizer","","html-keyboard-response","226","974897","0.0-2.0-65.0-0.0","28","70701","female","NaN","","","","null","NaN","63","","Stimuli/Experimental_stims/localizer/faces/carlos-vaz-KP4bxnxAilU-unsplash.jpg","974480","1","faces","","0","1","0","400","67300","417","71026","","","","","","","","","","","","","","","","","","","","","","","","","","","","","","","","","","","","","","","","","","","","","","","","","","","","","",""
"","iti_localizer","","html-keyboard-response","227","975212","0.0-2.0-65.0-1.0","28","70701","female","null","","","","null","","63","","","974897","1","","","","","","300","67700","315","71443","300","","","","","","","","","","","","","","","","","","","","","","","","","","","","","","","","","","","","","","","","","","","","","","","","","","","","",""
"","localizer","","html-keyboard-response","228","975639","0.0-2.0-66.0-0.0","28","70701","female","NaN","","","","null","NaN","64","","Stimuli/Experimental_stims/localizer/faces/tyler-nix-ZGa9d1a_4tA-unsplash.jpg","975212","1","faces","","1","1","0","400","68000","427","71758","","","","","","","","","","","","","","","","","","","","","","","","","","","","","","","","","","","","","","","","","","","","","","","","","","","","","",""
"","iti_localizer","","html-keyboard-response","229","975949","0.0-2.0-66.0-1.0","28","70701","female","null","","","","null","","64","","","975639","1","","","","","","300","68400","310","72185","300","","","","","","","","","","","","","","","","","","","","","","","","","","","","","","","","","","","","","","","","","","","","","","","","","","","","",""
"","localizer","","html-keyboard-response","230","976366","0.0-2.0-67.0-0.0","28","70701","female","97","","","","75","1","65","","Stimuli/Experimental_stims/localizer/faces/samuel-dixon--fQ5XNOcqFQ-unsplash.jpg","975949","1","faces","","0","0","0","400","68700","417","72495","","","","","","","","","","","","","","","","","","","","","","","","","","","","","","","","","","","","","","","","","","","","","","","","","","","","","",""
"","iti_localizer","","html-keyboard-response","231","990411","0.0-2.0-67.0-1.0","28","70701","female","null","","","","null","","65","","","976366","1","","","","","","14000","69100","14045","72912","14000","","","","","","","","","","","","","","","","","","","","","","","","","","","","","","","","","","","","","","","","","","","","","","","","","","","","",""
"","localizer","","html-keyboard-response","232","990840","0.0-2.0-68.0-0.0","28","70701","female","NaN","","","","null","NaN","66","","Stimuli/Experimental_stims/localizer/body_parts/nihal-karkala-LlOfbQD-IJ0-unsplash.jpg","990411","1","body_parts","","1","1","0","400","83100","429","86957","","","","","","","","","","","","","","","","","","","","","","","","","","","","","","","","","","","","","","","","","","","","","","","","","","","","","",""
"","iti_localizer","","html-keyboard-response","233","991157","0.0-2.0-68.0-1.0","28","70701","female","null","","","","null","","66","","","990840","1","","","","","","300","83500","317","87386","300","","","","","","","","","","","","","","","","","","","","","","","","","","","","","","","","","","","","","","","","","","","","","","","","","","","","",""
"","localizer","","html-keyboard-response","234","991573","0.0-2.0-69.0-0.0","28","70701","female","NaN","","","","null","NaN","67","","Stimuli/Experimental_stims/localizer/body_parts/nick-page-WTNmgJtwzGI-unsplash.jpg","991157","1","body_parts","","0","1","0","400","83800","416","87703","","","","","","","","","","","","","","","","","","","","","","","","","","","","","","","","","","","","","","","","","","","","","","","","","","","","","",""
"","iti_localizer","","html-keyboard-response","235","991885","0.0-2.0-69.0-1.0","28","70701","female","null","","","","null","","67","","","991573","1","","","","","","300","84200","312","88119","300","","","","","","","","","","","","","","","","","","","","","","","","","","","","","","","","","","","","","","","","","","","","","","","","","","","","",""
"","localizer","","html-keyboard-response","236","992303","0.0-2.0-70.0-0.0","28","70701","female","283","","","","75","1","68","","Stimuli/Experimental_stims/localizer/body_parts/sina-rezakhani-d1gQi0Jl05U-unsplash (1).jpg","991885","1","body_parts","","0","0","0","400","84500","418","88431","","","","","","","","","","","","","","","","","","","","","","","","","","","","","","","","","","","","","","","","","","","","","","","","","","","","","",""
"","iti_localizer","","html-keyboard-response","237","992628","0.0-2.0-70.0-1.0","28","70701","female","null","","","","null","","68","","","992303","1","","","","","","300","84900","325","88849","300","","","","","","","","","","","","","","","","","","","","","","","","","","","","","","","","","","","","","","","","","","","","","","","","","","","","",""
"","localizer","","html-keyboard-response","238","993044","0.0-2.0-71.0-0.0","28","70701","female","51","","","","68","0","69","","Stimuli/Experimental_stims/localizer/body_parts/meghan-thompson-U1b8OB0QpIo-unsplash.jpg","992628","1","body_parts","","0","0","1","400","85200","416","89174","","","","","","","","","","","","","","","","","","","","","","","","","","","","","","","","","","","","","","","","","","","","","","","","","","","","","",""
"","iti_localizer","","html-keyboard-response","239","993356","0.0-2.0-71.0-1.0","28","70701","female","null","","","","null","","69","","","993044","1","","","","","","300","85600","312","89590","300","","","","","","","","","","","","","","","","","","","","","","","","","","","","","","","","","","","","","","","","","","","","","","","","","","","","",""
"","localizer","","html-keyboard-response","240","993768","0.0-2.0-72.0-0.0","28","70701","female","NaN","","","","null","NaN","70","","Stimuli/Experimental_stims/localizer/body_parts/davidcohen-qghuLqyh3nE-unsplash.jpg","993356","1","body_parts","","0","1","0","400","85900","412","89902","","","","","","","","","","","","","","","","","","","","","","","","","","","","","","","","","","","","","","","","","","","","","","","","","","","","","",""
"","iti_localizer","","html-keyboard-response","241","994094","0.0-2.0-72.0-1.0","28","70701","female","null","","","","null","","70","","","993768","1","","","","","","300","86300","326","90314","300","","","","","","","","","","","","","","","","","","","","","","","","","","","","","","","","","","","","","","","","","","","","","","","","","","","","",""
"","localizer","","html-keyboard-response","242","994530","0.0-2.0-73.0-0.0","28","70701","female","NaN","","","","null","NaN","71","","Stimuli/Experimental_stims/localizer/body_parts/sincerely-media-QyzlAZjm0r0-unsplash.jpg","994094","1","body_parts","","0","1","0","400","86600","436","90640","","","","","","","","","","","","","","","","","","","","","","","","","","","","","","","","","","","","","","","","","","","","","","","","","","","","","",""
"","iti_localizer","","html-keyboard-response","243","994863","0.0-2.0-73.0-1.0","28","70701","female","null","","","","null","","71","","","994530","1","","","","","","300","87000","333","91076","300","","","","","","","","","","","","","","","","","","","","","","","","","","","","","","","","","","","","","","","","","","","","","","","","","","","","",""
"","localizer","","html-keyboard-response","244","995299","0.0-2.0-74.0-0.0","28","70701","female","234","","","","68","0","72","","Stimuli/Experimental_stims/localizer/body_parts/juja-han-Z8-6EI2tYtw-unsplash.jpg","994863","1","body_parts","","0","0","1","400","87300","436","91409","","","","","","","","","","","","","","","","","","","","","","","","","","","","","","","","","","","","","","","","","","","","","","","","","","","","","",""
"","iti_localizer","","html-keyboard-response","245","995617","0.0-2.0-74.0-1.0","28","70701","female","null","","","","null","","72","","","995299","1","","","","","","300","87700","318","91845","300","","","","","","","","","","","","","","","","","","","","","","","","","","","","","","","","","","","","","","","","","","","","","","","","","","","","",""
"","localizer","","html-keyboard-response","246","996032","0.0-2.0-75.0-0.0","28","70701","female","103","","","","75","1","73","","Stimuli/Experimental_stims/localizer/body_parts/natalie-grainger-8uB5kFKWWkk-unsplash.jpg","995617","1","body_parts","","0","0","0","400","88000","415","92163","","","","","","","","","","","","","","","","","","","","","","","","","","","","","","","","","","","","","","","","","","","","","","","","","","","","","",""
