"success","ttype","start_time","trial_type","trial_index","time_elapsed","internal_node_id","age","PID","gender","rt","responses","view_history","repeat_instructions","key_press","response","index","stimulus_index","path","start_time_elapsed","run","task","isi","is_odd_ball","no_response","acc","duration","onset","duration_time_elapsed","onset_time_elapsed","trial_duration","left_chosen","chosen_stimulus","unchosen_stimulus","chosen_category","unchosen_category","chosen_rating","unchosen_rating","chosen_path","unchosen_path","pair_id","practice","scramble_screen_time","scramble_instructed_side","stim_type","iti","block","left_stimulus","right_stimulus","left_category","right_category","left_path","right_path","left_rating","right_rating","scramble_acc","scramble_no_response","warning","stimulus_id","item_id","outcome","response_rt","deliberation_reward_tally","choice_type","gain_left","left_item_id","right_item_id","higher_outcome_chosen","chosen_left","old_pair","pair_type","old_response","pair_acc","reward_type","outcome_response","outcome_rt","outcome_acc","category","choice","deliberated_stim","old_rating","new_rating"
"true","full_screen","d08172023hr1855","fullscreen","0","141416","0.0-0.0-0.0","32","68112","female","","","","","","","","","","","","","","","","","","","","","","","","","","","","","","","","","","","","","","","","","","","","","","","","","","","","","","","","","","","","","","","","","","","","","","","",""
"","get_id","","survey-text","1","145536","0.0-0.0-1.0","32","68112","female","4115","{""Q0"":""32"",""Q1"":""female""}","","","","","","","","","","","","","","","","","","","","","","","","","","","","","","","","","","","","","","","","","","","","","","","","","","","","","","","","","","","","","","","","","","","","","",""
"","ratings_instructions","","instructions","2","156381","0.0-1.0-0.0-0.0","32","68112","female","10043","","[{""page_index"":0,""viewing_time"":6594},{""page_index"":1,""viewing_time"":3449}]","","","","","","","","","","","","","","","","","","","","","","","","","","","","","","","","","","","","","","","","","","","","","","","","","","","","","","","","","","","","","","","","","","","","",""
"","rating_comprehension_check","","survey-multi-choice","3","160308","0.0-1.0-0.0-1.0","32","68112","female","3922","{""Q0"":""True"",""Q1"":""Mouse""}","","0","","","","","","","","","","","","","","","","","","","","","","","","","","","","","","","","","","","","","","","","","","","","","","","","","","","","","","","","","","","","","","","","","","","",""
"","","","html-keyboard-response","4","162360","0.0-1.0-1.0","32","68112","female","2048","","","","68","","","","","","","","","","","","","","","","","","","","","","","","","","","","","","","","","","","","","","","","","","","","","","","","","","","","","","","","","","","","","","","","","","",""
"","rating","","html-slider-response","5","165496","0.0-1.0-2.0","32","68112","female","3132","","","","","33","0","38","Stimuli/Experimental_stims/objects/art-lasovsky-8XddFc6NkBY-unsplash.jpg","","","","","","","","","","","","","","","","","","","","","","","","","","","","","","","","","","","","","","","","","","","","","","","","","","","","","","","","","","","","","","",""
"","rating","","html-slider-response","6","167762","0.0-1.0-3.0","32","68112","female","2263","","","","","36","1","24","Stimuli/Experimental_stims/body_parts/clay-banks-LjqARJaJotc-unsplash.jpg","","","","","","","","","","","","","","","","","","","","","","","","","","","","","","","","","","","","","","","","","","","","","","","","","","","","","","","","","","","","","","",""
"","rating","","html-slider-response","7","170303","0.0-1.0-4.0","32","68112","female","2539","","","","","46","2","13","Stimuli/Experimental_stims/faces/daniel-rigdon-dXmXKPP2L4E-unsplash.jpg","","","","","","","","","","","","","","","","","","","","","","","","","","","","","","","","","","","","","","","","","","","","","","","","","","","","","","","","","","","","","","",""
"","rating","","html-slider-response","8","172477","0.0-1.0-5.0","32","68112","female","2171","","","","","85","3","2","Stimuli/Experimental_stims/outdoor_scenes/bruno-van-der-kraan-qez8mNJ3ilU-unsplash.jpg","","","","","","","","","","","","","","","","","","","","","","","","","","","","","","","","","","","","","","","","","","","","","","","","","","","","","","","","","","","","","","",""
"","rating","","html-slider-response","9","175102","0.0-1.0-6.0","32","68112","female","2621","","","","","32","4","36","Stimuli/Experimental_stims/objects/alexander-andrews-JYGnB9gTCls-unsplash.jpg","","","","","","","","","","","","","","","","","","","","","","","","","","","","","","","","","","","","","","","","","","","","","","","","","","","","","","","","","","","","","","",""
"","rating","","html-slider-response","10","177977","0.0-1.0-7.0","32","68112","female","2873","","","","","53","5","7","Stimuli/Experimental_stims/outdoor_scenes/petr-vysohlid-9fqwGqGLUxc-unsplash.jpg","","","","","","","","","","","","","","","","","","","","","","","","","","","","","","","","","","","","","","","","","","","","","","","","","","","","","","","","","","","","","","",""
"","rating","","html-slider-response","11","180105","0.0-1.0-8.0","32","68112","female","2125","","","","","41","6","28","Stimuli/Experimental_stims/body_parts/ira-vishnevskaya-8DQAvdCby1I-unsplash.jpg","","","","","","","","","","","","","","","","","","","","","","","","","","","","","","","","","","","","","","","","","","","","","","","","","","","","","","","","","","","","","","",""
"","rating","","html-slider-response","12","183057","0.0-1.0-9.0","32","68112","female","2948","","","","","29","7","14","Stimuli/Experimental_stims/faces/david-siglin-UuW4psOb388-unsplash.jpg","","","","","","","","","","","","","","","","","","","","","","","","","","","","","","","","","","","","","","","","","","","","","","","","","","","","","","","","","","","","","","",""
"","rating","","html-slider-response","13","185490","0.0-1.0-10.0","32","68112","female","2430","","","","","24","8","23","Stimuli/Experimental_stims/faces/rikonavt-HQjfrvdTfak-unsplash.jpg","","","","","","","","","","","","","","","","","","","","","","","","","","","","","","","","","","","","","","","","","","","","","","","","","","","","","","","","","","","","","","",""
"","rating","","html-slider-response","14","187794","0.0-1.0-11.0","32","68112","female","2301","","","","","77","9","39","Stimuli/Experimental_stims/objects/charlesdeluvio-1-nx1QR5dTE-unsplash.jpg","","","","","","","","","","","","","","","","","","","","","","","","","","","","","","","","","","","","","","","","","","","","","","","","","","","","","","","","","","","","","","",""
"","rating","","html-slider-response","15","189979","0.0-1.0-12.0","32","68112","female","2182","","","","","76","10","11","Stimuli/Experimental_stims/outdoor_scenes/stephen-leonardi-gyIRjKPXupE-unsplash.jpg","","","","","","","","","","","","","","","","","","","","","","","","","","","","","","","","","","","","","","","","","","","","","","","","","","","","","","","","","","","","","","",""
"","rating","","html-slider-response","16","192267","0.0-1.0-13.0","32","68112","female","2284","","","","","14","11","16","Stimuli/Experimental_stims/faces/freddy-kearney-o-ioeoATbIM-unsplash.jpg","","","","","","","","","","","","","","","","","","","","","","","","","","","","","","","","","","","","","","","","","","","","","","","","","","","","","","","","","","","","","","",""
"","rating","","html-slider-response","17","194845","0.0-1.0-14.0","32","68112","female","2576","","","","","89","12","46","Stimuli/Experimental_stims/objects/mockup-graphics-PNsj6RiHAF4-unsplash.jpg","","","","","","","","","","","","","","","","","","","","","","","","","","","","","","","","","","","","","","","","","","","","","","","","","","","","","","","","","","","","","","",""
"","rating","","html-slider-response","18","197541","0.0-1.0-15.0","32","68112","female","2693","","","","","53","13","20","Stimuli/Experimental_stims/faces/justin-chen-J7Cf1Gch49E-unsplash.jpg","","","","","","","","","","","","","","","","","","","","","","","","","","","","","","","","","","","","","","","","","","","","","","","","","","","","","","","","","","","","","","",""
"","rating","","html-slider-response","19","199302","0.0-1.0-16.0","32","68112","female","1759","","","","","28","14","18","Stimuli/Experimental_stims/faces/jessica-radanavong-mrYkTuAesKE-unsplash.jpg","","","","","","","","","","","","","","","","","","","","","","","","","","","","","","","","","","","","","","","","","","","","","","","","","","","","","","","","","","","","","","",""
"","rating","","html-slider-response","20","201752","0.0-1.0-17.0","32","68112","female","2445","","","","","18","15","42","Stimuli/Experimental_stims/objects/jess-bailey-nOeVi8DsN8U-unsplash.jpg","","","","","","","","","","","","","","","","","","","","","","","","","","","","","","","","","","","","","","","","","","","","","","","","","","","","","","","","","","","","","","",""
"","rating","","html-slider-response","21","203770","0.0-1.0-18.0","32","68112","female","2016","","","","","91","16","5","Stimuli/Experimental_stims/outdoor_scenes/jeff-king-bJHWJeiHfHc-unsplash.jpg","","","","","","","","","","","","","","","","","","","","","","","","","","","","","","","","","","","","","","","","","","","","","","","","","","","","","","","","","","","","","","",""
"","rating","","html-slider-response","22","205645","0.0-1.0-19.0","32","68112","female","1870","","","","","13","17","25","Stimuli/Experimental_stims/body_parts/engin-akyurt-Q2rfH3GW39c-unsplash.jpg","","","","","","","","","","","","","","","","","","","","","","","","","","","","","","","","","","","","","","","","","","","","","","","","","","","","","","","","","","","","","","",""
"","rating","","html-slider-response","23","209789","0.0-1.0-20.0","32","68112","female","4141","","","","","0","18","29","Stimuli/Experimental_stims/body_parts/manuel-schinner-ZwjFuJ7ebpk-unsplash.jpg","","","","","","","","","","","","","","","","","","","","","","","","","","","","","","","","","","","","","","","","","","","","","","","","","","","","","","","","","","","","","","",""
"","rating","","html-slider-response","24","211601","0.0-1.0-21.0","32","68112","female","1809","","","","","22","19","47","Stimuli/Experimental_stims/objects/ronaldo-arthur-vidal-Cdz_lvnl37k-unsplash.jpg","","","","","","","","","","","","","","","","","","","","","","","","","","","","","","","","","","","","","","","","","","","","","","","","","","","","","","","","","","","","","","",""
"","rating","","html-slider-response","25","213327","0.0-1.0-22.0","32","68112","female","1722","","","","","79","20","4","Stimuli/Experimental_stims/outdoor_scenes/jarrett-kow-1ZOyYPOBn7I-unsplash.jpg","","","","","","","","","","","","","","","","","","","","","","","","","","","","","","","","","","","","","","","","","","","","","","","","","","","","","","","","","","","","","","",""
"","rating","","html-slider-response","26","217232","0.0-1.0-23.0","32","68112","female","3901","","","","","13","21","31","Stimuli/Experimental_stims/body_parts/sincerely-media-VN6DbKajo5s-unsplash.jpg","","","","","","","","","","","","","","","","","","","","","","","","","","","","","","","","","","","","","","","","","","","","","","","","","","","","","","","","","","","","","","",""
"","rating","","html-slider-response","27","219435","0.0-1.0-24.0","32","68112","female","2200","","","","","65","22","44","Stimuli/Experimental_stims/objects/kuiye-chen-NuOGFo4PudE-unsplash.jpg","","","","","","","","","","","","","","","","","","","","","","","","","","","","","","","","","","","","","","","","","","","","","","","","","","","","","","","","","","","","","","",""
"","rating","","html-slider-response","28","221383","0.0-1.0-25.0","32","68112","female","1945","","","","","20","23","37","Stimuli/Experimental_stims/objects/alexander-andrews-VLGWE_SumrA-unsplash.jpg","","","","","","","","","","","","","","","","","","","","","","","","","","","","","","","","","","","","","","","","","","","","","","","","","","","","","","","","","","","","","","",""
"","rating","","html-slider-response","29","223454","0.0-1.0-26.0","32","68112","female","2066","","","","","84","24","10","Stimuli/Experimental_stims/outdoor_scenes/shannon-kunkle-dM8INmkyDas-unsplash.jpg","","","","","","","","","","","","","","","","","","","","","","","","","","","","","","","","","","","","","","","","","","","","","","","","","","","","","","","","","","","","","","",""
"","rating","","html-slider-response","30","225414","0.0-1.0-27.0","32","68112","female","1958","","","","","35","25","40","Stimuli/Experimental_stims/objects/fabian-blank-pElSkGRA2NU-unsplash.jpg","","","","","","","","","","","","","","","","","","","","","","","","","","","","","","","","","","","","","","","","","","","","","","","","","","","","","","","","","","","","","","",""
"","rating","","html-slider-response","31","227602","0.0-1.0-28.0","32","68112","female","2186","","","","","81","26","9","Stimuli/Experimental_stims/outdoor_scenes/sergey-pesterev-y-b_FOmJXdg-unsplash.jpg","","","","","","","","","","","","","","","","","","","","","","","","","","","","","","","","","","","","","","","","","","","","","","","","","","","","","","","","","","","","","","",""
"","rating","","html-slider-response","32","229840","0.0-1.0-29.0","32","68112","female","2235","","","","","36","27","41","Stimuli/Experimental_stims/objects/insung-yoon-w2JtIQQXoRU-unsplash.jpg","","","","","","","","","","","","","","","","","","","","","","","","","","","","","","","","","","","","","","","","","","","","","","","","","","","","","","","","","","","","","","",""
"","rating","","html-slider-response","33","231775","0.0-1.0-30.0","32","68112","female","1932","","","","","98","28","8","Stimuli/Experimental_stims/outdoor_scenes/samsommer-vddccTqwal8-unsplash.jpg","","","","","","","","","","","","","","","","","","","","","","","","","","","","","","","","","","","","","","","","","","","","","","","","","","","","","","","","","","","","","","",""
"","rating","","html-slider-response","34","233739","0.0-1.0-31.0","32","68112","female","1961","","","","","32","29","3","Stimuli/Experimental_stims/outdoor_scenes/henry-be-NLF6hTe4PAg-unsplash.jpg","","","","","","","","","","","","","","","","","","","","","","","","","","","","","","","","","","","","","","","","","","","","","","","","","","","","","","","","","","","","","","",""
"","rating","","html-slider-response","35","235833","0.0-1.0-32.0","32","68112","female","2090","","","","","15","30","27","Stimuli/Experimental_stims/body_parts/heike-mintel-i_Gns0ELnLw-unsplash.jpg","","","","","","","","","","","","","","","","","","","","","","","","","","","","","","","","","","","","","","","","","","","","","","","","","","","","","","","","","","","","","","",""
"","rating","","html-slider-response","36","237750","0.0-1.0-33.0","32","68112","female","1913","","","","","20","31","19","Stimuli/Experimental_stims/faces/joel-mott-LaK153ghdig-unsplash.jpg","","","","","","","","","","","","","","","","","","","","","","","","","","","","","","","","","","","","","","","","","","","","","","","","","","","","","","","","","","","","","","",""
"","rating","","html-slider-response","37","239793","0.0-1.0-34.0","32","68112","female","2040","","","","","58","32","45","Stimuli/Experimental_stims/objects/leohoho-rngTKHXumy0-unsplash.jpg","","","","","","","","","","","","","","","","","","","","","","","","","","","","","","","","","","","","","","","","","","","","","","","","","","","","","","","","","","","","","","",""
"","rating","","html-slider-response","38","241619","0.0-1.0-35.0","32","68112","female","1823","","","","","10","33","30","Stimuli/Experimental_stims/body_parts/mika-korhonen-Xodzxosar18-unsplash.jpg","","","","","","","","","","","","","","","","","","","","","","","","","","","","","","","","","","","","","","","","","","","","","","","","","","","","","","","","","","","","","","",""
"","rating","","html-slider-response","39","243660","0.0-1.0-36.0","32","68112","female","2037","","","","","0","34","21","Stimuli/Experimental_stims/faces/leilani-angel-K84vnnzxmTQ-unsplash.jpg","","","","","","","","","","","","","","","","","","","","","","","","","","","","","","","","","","","","","","","","","","","","","","","","","","","","","","","","","","","","","","",""
"","rating","","html-slider-response","40","246449","0.0-1.0-37.0","32","68112","female","2786","","","","","45","35","34","Stimuli/Experimental_stims/body_parts/wagner-santos-mBWMvIuVnso-unsplash.jpg","","","","","","","","","","","","","","","","","","","","","","","","","","","","","","","","","","","","","","","","","","","","","","","","","","","","","","","","","","","","","","",""
"","rating","","html-slider-response","41","248390","0.0-1.0-38.0","32","68112","female","1939","","","","","5","36","35","Stimuli/Experimental_stims/body_parts/wc-so-KH4AAPjb-tI-unsplash.jpg","","","","","","","","","","","","","","","","","","","","","","","","","","","","","","","","","","","","","","","","","","","","","","","","","","","","","","","","","","","","","","",""
"","rating","","html-slider-response","42","250254","0.0-1.0-39.0","32","68112","female","1861","","","","","19","37","15","Stimuli/Experimental_stims/faces/erik-lucatero-d2MSDujJl2g-unsplash.jpg","","","","","","","","","","","","","","","","","","","","","","","","","","","","","","","","","","","","","","","","","","","","","","","","","","","","","","","","","","","","","","",""
"","rating","","html-slider-response","43","253087","0.0-1.0-40.0","32","68112","female","2830","","","","","53","38","1","Stimuli/Experimental_stims/outdoor_scenes/ashim-d-silva-S2Q5mdOrrVc-unsplash.jpg","","","","","","","","","","","","","","","","","","","","","","","","","","","","","","","","","","","","","","","","","","","","","","","","","","","","","","","","","","","","","","",""
"","rating","","html-slider-response","44","255120","0.0-1.0-41.0","32","68112","female","2030","","","","","8","39","22","Stimuli/Experimental_stims/faces/ravi-patel-VMGAbeeJTKo-unsplash.jpg","","","","","","","","","","","","","","","","","","","","","","","","","","","","","","","","","","","","","","","","","","","","","","","","","","","","","","","","","","","","","","",""
"","rating","","html-slider-response","45","257029","0.0-1.0-42.0","32","68112","female","1906","","","","","6","40","26","Stimuli/Experimental_stims/body_parts/engin-akyurt-x_3gyC42btc-unsplash.jpg","","","","","","","","","","","","","","","","","","","","","","","","","","","","","","","","","","","","","","","","","","","","","","","","","","","","","","","","","","","","","","",""
"","rating","","html-slider-response","46","259375","0.0-1.0-43.0","32","68112","female","2343","","","","","63","41","0","Stimuli/Experimental_stims/outdoor_scenes/aleksandra-boguslawska-MS7KD9Ti7FQ-unsplash.jpg","","","","","","","","","","","","","","","","","","","","","","","","","","","","","","","","","","","","","","","","","","","","","","","","","","","","","","","","","","","","","","",""
"","rating","","html-slider-response","47","261326","0.0-1.0-44.0","32","68112","female","1947","","","","","10","42","43","Stimuli/Experimental_stims/objects/jonathan-greenaway-Y4hGgeiFn3s-unsplash.jpg","","","","","","","","","","","","","","","","","","","","","","","","","","","","","","","","","","","","","","","","","","","","","","","","","","","","","","","","","","","","","","",""
"","rating","","html-slider-response","48","263181","0.0-1.0-45.0","32","68112","female","1853","","","","","9","43","32","Stimuli/Experimental_stims/body_parts/towfiqu-barbhuiya-3AsiVDsZnHg-unsplash.jpg","","","","","","","","","","","","","","","","","","","","","","","","","","","","","","","","","","","","","","","","","","","","","","","","","","","","","","","","","","","","","","",""
"","rating","","html-slider-response","49","265098","0.0-1.0-46.0","32","68112","female","1912","","","","","4","44","17","Stimuli/Experimental_stims/faces/good-faces-xmSWVeGEnJw-unsplash.jpg","","","","","","","","","","","","","","","","","","","","","","","","","","","","","","","","","","","","","","","","","","","","","","","","","","","","","","","","","","","","","","",""
"","rating","","html-slider-response","50","267042","0.0-1.0-47.0","32","68112","female","1940","","","","","94","45","6","Stimuli/Experimental_stims/outdoor_scenes/meng-ji-8BH_M-53CyA-unsplash.jpg","","","","","","","","","","","","","","","","","","","","","","","","","","","","","","","","","","","","","","","","","","","","","","","","","","","","","","","","","","","","","","",""
"","rating","","html-slider-response","51","269202","0.0-1.0-48.0","32","68112","female","2156","","","","","9","46","33","Stimuli/Experimental_stims/body_parts/tucker-good-36skLT5jZcc-unsplash.jpg","","","","","","","","","","","","","","","","","","","","","","","","","","","","","","","","","","","","","","","","","","","","","","","","","","","","","","","","","","","","","","",""
"","rating","","html-slider-response","52","271333","0.0-1.0-49.0","32","68112","female","2127","","","","","10","47","12","Stimuli/Experimental_stims/faces/aiony-haust-jmATI5Q_YgY-unsplash.jpg","","","","","","","","","","","","","","","","","","","","","","","","","","","","","","","","","","","","","","","","","","","","","","","","","","","","","","","","","","","","","","",""
"","localizer_instructions","","instructions","53","286512","0.0-2.0-0.0-0.0","32","68112","female","15152","","[{""page_index"":0,""viewing_time"":8721},{""page_index"":1,""viewing_time"":4958},{""page_index"":2,""viewing_time"":1473}]","","","","","","","","","","","","","","","","","","","","","","","","","","","","","","","","","","","","","","","","","","","","","","","","","","","","","","","","","","","","","","","","","","","","",""
"","localizer_comprehension_check","","survey-multi-choice","54","292492","0.0-2.0-0.0-1.0","32","68112","female","5975","{""Q0"":""True"",""Q1"":""K"",""Q2"":""D""}","","0","","","","","","","","","","","","","","","","","","","","","","","","","","","","","","","","","","","","","","","","","","","","","","","","","","","","","","","","","","","","","","","","","","","",""
"","","","html-keyboard-response","55","293958","0.0-2.0-1.0","32","68112","female","1463","","","","68","","","","","","","","","","","","","","","","","","","","","","","","","","","","","","","","","","","","","","","","","","","","","","","","","","","","","","","","","","","","","","","","","","",""
"","localizer","","html-keyboard-response","56","294368","0.0-2.0-2.0-0.0","32","68112","female","NaN","","","","null","NaN","0","","Stimuli/Practice_stims/Localizer/annie-spratt-g9KFpAfQ5bc-unsplash.jpg","293958","0","NaN","","0","1","0","400","0","410","0","","","","","","","","","","","","","","","","","","","","","","","","","","","","","","","","","","","","","","","","","","","","","","","","","","","",""
"","iti_localizer","","html-keyboard-response","57","294678","0.0-2.0-2.0-1.0","32","68112","female","null","","","","null","","0","","","294368","0","","","","","","300","400","310","410","300","","","","","","","","","","","","","","","","","","","","","","","","","","","","","","","","","","","","","","","","","","","","","","","","","","",""
"","localizer","","html-keyboard-response","58","295096","0.0-2.0-2.1-0.1","32","68112","female","NaN","","","","null","NaN","0","","Stimuli/Practice_stims/Localizer/annie-spratt-g9KFpAfQ5bc-unsplash.jpg","294678","0","NaN","","0","1","0","400","700","418","720","","","","","","","","","","","","","","","","","","","","","","","","","","","","","","","","","","","","","","","","","","","","","","","","","","","",""
"","iti_localizer","","html-keyboard-response","59","295408","0.0-2.0-2.1-1.1","32","68112","female","null","","","","null","","0","","","295096","0","","","","","","300","1100","312","1138","300","","","","","","","","","","","","","","","","","","","","","","","","","","","","","","","","","","","","","","","","","","","","","","","","","","",""
"","localizer","","html-keyboard-response","60","295813","0.0-2.0-2.2-0.2","32","68112","female","151","","","","68","0","0","","Stimuli/Practice_stims/Localizer/annie-spratt-g9KFpAfQ5bc-unsplash.jpg","295408","0","NaN","","0","0","1","400","1400","405","1450","","","","","","","","","","","","","","","","","","","","","","","","","","","","","","","","","","","","","","","","","","","","","","","","","","","",""
"","iti_localizer","","html-keyboard-response","61","296124","0.0-2.0-2.2-1.2","32","68112","female","null","","","","null","","0","","","295813","0","","","","","","300","1800","311","1855","300","","","","","","","","","","","","","","","","","","","","","","","","","","","","","","","","","","","","","","","","","","","","","","","","","","",""
"","localizer","","html-keyboard-response","62","296530","0.0-2.0-3.0-0.0","32","68112","female","NaN","","","","null","NaN","1","","Stimuli/Practice_stims/Localizer/becca-tapert-sY5RjMB1KkE-unsplash.jpg","296124","0","NaN","","0","1","0","400","2100","406","2166","","","","","","","","","","","","","","","","","","","","","","","","","","","","","","","","","","","","","","","","","","","","","","","","","","","",""
"","iti_localizer","","html-keyboard-response","63","296842","0.0-2.0-3.0-1.0","32","68112","female","null","","","","null","","1","","","296530","0","","","","","","300","2500","312","2572","300","","","","","","","","","","","","","","","","","","","","","","","","","","","","","","","","","","","","","","","","","","","","","","","","","","",""
"","localizer","","html-keyboard-response","64","297249","0.0-2.0-3.1-0.1","32","68112","female","NaN","","","","null","NaN","1","","Stimuli/Practice_stims/Localizer/becca-tapert-sY5RjMB1KkE-unsplash.jpg","296842","0","NaN","","0","1","0","400","2800","407","2884","","","","","","","","","","","","","","","","","","","","","","","","","","","","","","","","","","","","","","","","","","","","","","","","","","","",""
"","iti_localizer","","html-keyboard-response","65","297559","0.0-2.0-3.1-1.1","32","68112","female","null","","","","null","","1","","","297249","0","","","","","","300","3200","310","3291","300","","","","","","","","","","","","","","","","","","","","","","","","","","","","","","","","","","","","","","","","","","","","","","","","","","",""
"","localizer","","html-keyboard-response","66","297962","0.0-2.0-3.2-0.2","32","68112","female","NaN","","","","null","NaN","1","","Stimuli/Practice_stims/Localizer/becca-tapert-sY5RjMB1KkE-unsplash.jpg","297559","0","NaN","","0","1","0","400","3500","403","3601","","","","","","","","","","","","","","","","","","","","","","","","","","","","","","","","","","","","","","","","","","","","","","","","","","","",""
"","iti_localizer","","html-keyboard-response","67","298274","0.0-2.0-3.2-1.2","32","68112","female","null","","","","null","","1","","","297962","0","","","","","","300","3900","312","4004","300","","","","","","","","","","","","","","","","","","","","","","","","","","","","","","","","","","","","","","","","","","","","","","","","","","",""
"","localizer","","html-keyboard-response","68","298677","0.0-2.0-3.3-0.3","32","68112","female","401","","","","68","0","1","","Stimuli/Practice_stims/Localizer/becca-tapert-sY5RjMB1KkE-unsplash.jpg","298274","0","NaN","","0","0","1","400","4200","403","4316","","","","","","","","","","","","","","","","","","","","","","","","","","","","","","","","","","","","","","","","","","","","","","","","","","","",""
"","iti_localizer","","html-keyboard-response","69","298993","0.0-2.0-3.3-1.3","32","68112","female","null","","","","null","","1","","","298677","0","","","","","","300","4600","316","4719","300","","","","","","","","","","","","","","","","","","","","","","","","","","","","","","","","","","","","","","","","","","","","","","","","","","",""
"","localizer","","html-keyboard-response","70","299399","0.0-2.0-4.0-0.0","32","68112","female","NaN","","","","null","NaN","2","","Stimuli/Practice_stims/Localizer/charl-durand-bsfXvI25iNg-unsplash.jpg","298993","0","NaN","","1","1","0","400","4900","406","5035","","","","","","","","","","","","","","","","","","","","","","","","","","","","","","","","","","","","","","","","","","","","","","","","","","","",""
"","iti_localizer","","html-keyboard-response","71","299710","0.0-2.0-4.0-1.0","32","68112","female","null","","","","null","","2","","","299399","0","","","","","","300","5300","311","5441","300","","","","","","","","","","","","","","","","","","","","","","","","","","","","","","","","","","","","","","","","","","","","","","","","","","",""
"","localizer","","html-keyboard-response","72","300114","0.0-2.0-4.1-0.1","32","68112","female","NaN","","","","null","NaN","2","","Stimuli/Practice_stims/Localizer/charl-durand-bsfXvI25iNg-unsplash.jpg","299710","0","NaN","","1","1","0","400","5600","404","5752","","","","","","","","","","","","","","","","","","","","","","","","","","","","","","","","","","","","","","","","","","","","","","","","","","","",""
"","iti_localizer","","html-keyboard-response","73","300426","0.0-2.0-4.1-1.1","32","68112","female","null","","","","null","","2","","","300114","0","","","","","","300","6000","312","6156","300","","","","","","","","","","","","","","","","","","","","","","","","","","","","","","","","","","","","","","","","","","","","","","","","","","",""
"","localizer","","html-keyboard-response","74","300830","0.0-2.0-4.2-0.2","32","68112","female","191","","","","75","1","2","","Stimuli/Practice_stims/Localizer/charl-durand-bsfXvI25iNg-unsplash.jpg","300426","0","NaN","","1","0","1","400","6300","404","6468","","","","","","","","","","","","","","","","","","","","","","","","","","","","","","","","","","","","","","","","","","","","","","","","","","","",""
"","iti_localizer","","html-keyboard-response","75","301141","0.0-2.0-4.2-1.2","32","68112","female","null","","","","null","","2","","","300830","0","","","","","","300","6700","311","6872","300","","","","","","","","","","","","","","","","","","","","","","","","","","","","","","","","","","","","","","","","","","","","","","","","","","",""
"","localizer","","html-keyboard-response","76","301546","0.0-2.0-5.0-0.0","32","68112","female","NaN","","","","null","NaN","3","","Stimuli/Practice_stims/Localizer/nizar-albusaidy-B2r2SWAf5CE-unsplash.jpg","301141","0","NaN","","0","1","0","400","7000","405","7183","","","","","","","","","","","","","","","","","","","","","","","","","","","","","","","","","","","","","","","","","","","","","","","","","","","",""
"","iti_localizer","","html-keyboard-response","77","301858","0.0-2.0-5.0-1.0","32","68112","female","null","","","","null","","3","","","301546","0","","","","","","300","7400","312","7588","300","","","","","","","","","","","","","","","","","","","","","","","","","","","","","","","","","","","","","","","","","","","","","","","","","","",""
"","localizer","","html-keyboard-response","78","302265","0.0-2.0-5.1-0.1","32","68112","female","NaN","","","","null","NaN","3","","Stimuli/Practice_stims/Localizer/nizar-albusaidy-B2r2SWAf5CE-unsplash.jpg","301858","0","NaN","","0","1","0","400","7700","407","7900","","","","","","","","","","","","","","","","","","","","","","","","","","","","","","","","","","","","","","","","","","","","","","","","","","","",""
"","iti_localizer","","html-keyboard-response","79","302578","0.0-2.0-5.1-1.1","32","68112","female","null","","","","null","","3","","","302265","0","","","","","","300","8100","313","8307","300","","","","","","","","","","","","","","","","","","","","","","","","","","","","","","","","","","","","","","","","","","","","","","","","","","",""
"","localizer","","html-keyboard-response","80","302995","0.0-2.0-5.2-0.2","32","68112","female","NaN","","","","null","NaN","3","","Stimuli/Practice_stims/Localizer/nizar-albusaidy-B2r2SWAf5CE-unsplash.jpg","302578","0","NaN","","0","1","0","400","8400","417","8620","","","","","","","","","","","","","","","","","","","","","","","","","","","","","","","","","","","","","","","","","","","","","","","","","","","",""
"","iti_localizer","","html-keyboard-response","81","303309","0.0-2.0-5.2-1.2","32","68112","female","null","","","","null","","3","","","302995","0","","","","","","300","8800","314","9037","300","","","","","","","","","","","","","","","","","","","","","","","","","","","","","","","","","","","","","","","","","","","","","","","","","","",""
"","localizer","","html-keyboard-response","82","303713","0.0-2.0-5.3-0.3","32","68112","female","344","","","","68","0","3","","Stimuli/Practice_stims/Localizer/nizar-albusaidy-B2r2SWAf5CE-unsplash.jpg","303309","0","NaN","","0","0","1","400","9100","404","9351","","","","","","","","","","","","","","","","","","","","","","","","","","","","","","","","","","","","","","","","","","","","","","","","","","","",""
"","iti_localizer","","html-keyboard-response","83","304019","0.0-2.0-5.3-1.3","32","68112","female","null","","","","null","","3","","","303713","0","","","","","","300","9500","306","9755","300","","","","","","","","","","","","","","","","","","","","","","","","","","","","","","","","","","","","","","","","","","","","","","","","","","",""
"","localizer","","html-keyboard-response","84","304424","0.0-2.0-6.0-0.0","32","68112","female","382","","","","75","1","4","","Stimuli/Practice_stims/Localizer/randy-fath-epf1tdtIIkM-unsplash.jpg","304019","0","NaN","","1","0","1","400","9800","405","10061","","","","","","","","","","","","","","","","","","","","","","","","","","","","","","","","","","","","","","","","","","","","","","","","","","","",""
"","iti_localizer","","html-keyboard-response","85","304731","0.0-2.0-6.0-1.0","32","68112","female","null","","","","null","","4","","","304424","0","","","","","","300","10200","307","10466","300","","","","","","","","","","","","","","","","","","","","","","","","","","","","","","","","","","","","","","","","","","","","","","","","","","",""
"","localizer","","html-keyboard-response","86","305137","0.0-2.0-7.0-0.0","32","68112","female","NaN","","","","null","NaN","5","","Stimuli/Practice_stims/Localizer/yassine-khalfalli-adsQ9d_Cx0c-unsplash.jpg","304731","0","NaN","","0","1","0","400","10500","406","10773","","","","","","","","","","","","","","","","","","","","","","","","","","","","","","","","","","","","","","","","","","","","","","","","","","","",""
"","iti_localizer","","html-keyboard-response","87","305445","0.0-2.0-7.0-1.0","32","68112","female","null","","","","null","","5","","","305137","0","","","","","","300","10900","308","11179","300","","","","","","","","","","","","","","","","","","","","","","","","","","","","","","","","","","","","","","","","","","","","","","","","","","",""
"","localizer","","html-keyboard-response","88","305852","0.0-2.0-7.1-0.1","32","68112","female","NaN","","","","null","NaN","5","","Stimuli/Practice_stims/Localizer/yassine-khalfalli-adsQ9d_Cx0c-unsplash.jpg","305445","0","NaN","","0","1","0","400","11200","407","11487","","","","","","","","","","","","","","","","","","","","","","","","","","","","","","","","","","","","","","","","","","","","","","","","","","","",""
"","iti_localizer","","html-keyboard-response","89","306156","0.0-2.0-7.1-1.1","32","68112","female","null","","","","null","","5","","","305852","0","","","","","","300","11600","304","11894","300","","","","","","","","","","","","","","","","","","","","","","","","","","","","","","","","","","","","","","","","","","","","","","","","","","",""
"","localizer","","html-keyboard-response","90","306570","0.0-2.0-7.2-0.2","32","68112","female","327","","","","68","0","5","","Stimuli/Practice_stims/Localizer/yassine-khalfalli-adsQ9d_Cx0c-unsplash.jpg","306156","0","NaN","","0","0","1","400","11900","414","12198","","","","","","","","","","","","","","","","","","","","","","","","","","","","","","","","","","","","","","","","","","","","","","","","","","","",""
"","iti_localizer","","html-keyboard-response","91","306882","0.0-2.0-7.2-1.2","32","68112","female","null","","","","null","","5","","","306570","0","","","","","","300","12300","312","12612","300","","","","","","","","","","","","","","","","","","","","","","","","","","","","","","","","","","","","","","","","","","","","","","","","","","",""
"","practice_over","","html-keyboard-response","92","308982","0.0-2.0-7.2-2.2-0.2","32","68112","female","2096","","","","68","","","","","","","","","","","","","","","","","","","","","","","","","","","","","","","","","","","","","","","","","","","","","","","","","","","","","","","","","","","","","","","","","","",""
"","start_run","","html-keyboard-response","93","310523","0.0-2.0-7.2-2.2-1.2","32","68112","female","1536","","","","84","","","","","","","","","","","","","","","","","","","","","","","","","","","","","","","","","","","","","","","","","","","","","","","","","","","","","","","","","","","","","","","","","","",""
"","localizer","","html-keyboard-response","94","310926","0.0-2.0-8.0-0.0","32","68112","female","NaN","","","","null","NaN","6","","Stimuli/Experimental_stims/localizer/faces/christina-wocintechchat-com-0Zx1bDv5BNY-unsplash.jpg","310523","1","faces","","0","1","0","400","0","403","0","","","","","","","","","","","","","","","","","","","","","","","","","","","","","","","","","","","","","","","","","","","","","","","","","","","",""
"","iti_localizer","","html-keyboard-response","95","311235","0.0-2.0-8.0-1.0","32","68112","female","null","","","","null","","6","","","310926","1","","","","","","300","400","309","403","300","","","","","","","","","","","","","","","","","","","","","","","","","","","","","","","","","","","","","","","","","","","","","","","","","","",""
"","localizer","","html-keyboard-response","96","311654","0.0-2.0-9.0-0.0","32","68112","female","NaN","","","","null","NaN","7","","Stimuli/Experimental_stims/localizer/faces/jeffery-erhunse-BQMZ5ligqps-unsplash.jpg","311235","1","faces","","0","1","0","400","700","419","712","","","","","","","","","","","","","","","","","","","","","","","","","","","","","","","","","","","","","","","","","","","","","","","","","","","",""
"","iti_localizer","","html-keyboard-response","97","311967","0.0-2.0-9.0-1.0","32","68112","female","null","","","","null","","7","","","311654","1","","","","","","300","1100","313","1131","300","","","","","","","","","","","","","","","","","","","","","","","","","","","","","","","","","","","","","","","","","","","","","","","","","","",""
"","localizer","","html-keyboard-response","98","312370","0.0-2.0-10.0-0.0","32","68112","female","256","","","","68","0","8","","Stimuli/Experimental_stims/localizer/faces/matheus-ferrero-W7b3eDUb_2I-unsplash.jpg","311967","1","faces","","0","0","1","400","1400","403","1444","","","","","","","","","","","","","","","","","","","","","","","","","","","","","","","","","","","","","","","","","","","","","","","","","","","",""
"","iti_localizer","","html-keyboard-response","99","312681","0.0-2.0-10.0-1.0","32","68112","female","null","","","","null","","8","","","312370","1","","","","","","300","1800","311","1847","300","","","","","","","","","","","","","","","","","","","","","","","","","","","","","","","","","","","","","","","","","","","","","","","","","","",""
"","localizer","","html-keyboard-response","100","313086","0.0-2.0-11.0-0.0","32","68112","female","210","","","","68","0","9","","Stimuli/Experimental_stims/localizer/faces/jurica-koletic-7YVZYZeITc8-unsplash.jpg","312681","1","faces","","1","0","0","400","2100","405","2158","","","","","","","","","","","","","","","","","","","","","","","","","","","","","","","","","","","","","","","","","","","","","","","","","","","",""
"","iti_localizer","","html-keyboard-response","101","313397","0.0-2.0-11.0-1.0","32","68112","female","null","","","","null","","9","","","313086","1","","","","","","300","2500","311","2563","300","","","","","","","","","","","","","","","","","","","","","","","","","","","","","","","","","","","","","","","","","","","","","","","","","","",""
"","localizer","","html-keyboard-response","102","313801","0.0-2.0-12.0-0.0","32","68112","female","363","","","","68","0","10","","Stimuli/Experimental_stims/localizer/faces/drew-hays-agGIKYs4mYs-unsplash.jpg","313397","1","faces","","0","0","1","400","2800","404","2874","","","","","","","","","","","","","","","","","","","","","","","","","","","","","","","","","","","","","","","","","","","","","","","","","","","",""
"","iti_localizer","","html-keyboard-response","103","314111","0.0-2.0-12.0-1.0","32","68112","female","null","","","","null","","10","","","313801","1","","","","","","300","3200","310","3278","300","","","","","","","","","","","","","","","","","","","","","","","","","","","","","","","","","","","","","","","","","","","","","","","","","","",""
"","localizer","","html-keyboard-response","104","314520","0.0-2.0-13.0-0.0","32","68112","female","NaN","","","","null","NaN","11","","Stimuli/Experimental_stims/localizer/faces/rui-silvestre-hAMJpesMeDE-unsplash.jpg","314111","1","faces","","0","1","0","400","3500","409","3588","","","","","","","","","","","","","","","","","","","","","","","","","","","","","","","","","","","","","","","","","","","","","","","","","","","",""
"","iti_localizer","","html-keyboard-response","105","314832","0.0-2.0-13.0-1.0","32","68112","female","null","","","","null","","11","","","314520","1","","","","","","300","3900","312","3997","300","","","","","","","","","","","","","","","","","","","","","","","","","","","","","","","","","","","","","","","","","","","","","","","","","","",""
"","localizer","","html-keyboard-response","106","315236","0.0-2.0-14.0-0.0","32","68112","female","367","","","","68","0","12","","Stimuli/Experimental_stims/localizer/faces/sean-kong--1B_y4wGs-s-unsplash.jpg","314832","1","faces","","0","0","1","400","4200","404","4309","","","","","","","","","","","","","","","","","","","","","","","","","","","","","","","","","","","","","","","","","","","","","","","","","","","",""
"","iti_localizer","","html-keyboard-response","107","315549","0.0-2.0-14.0-1.0","32","68112","female","null","","","","null","","12","","","315236","1","","","","","","300","4600","313","4713","300","","","","","","","","","","","","","","","","","","","","","","","","","","","","","","","","","","","","","","","","","","","","","","","","","","",""
"","localizer","","html-keyboard-response","108","315966","0.0-2.0-15.0-0.0","32","68112","female","NaN","","","","null","NaN","13","","Stimuli/Experimental_stims/localizer/faces/vince-fleming-j3lf-Jn6deo-unsplash.jpg","315549","1","faces","","0","1","0","400","4900","417","5026","","","","","","","","","","","","","","","","","","","","","","","","","","","","","","","","","","","","","","","","","","","","","","","","","","","",""
"","iti_localizer","","html-keyboard-response","109","316274","0.0-2.0-15.0-1.0","32","68112","female","null","","","","null","","13","","","315966","1","","","","","","300","5300","308","5443","300","","","","","","","","","","","","","","","","","","","","","","","","","","","","","","","","","","","","","","","","","","","","","","","","","","",""
"","localizer","","html-keyboard-response","110","316680","0.0-2.0-16.0-0.0","32","68112","female","NaN","","","","null","NaN","14","","Stimuli/Experimental_stims/localizer/faces/tyler-nix-ZGa9d1a_4tA-unsplash.jpg","316274","1","faces","","0","1","0","400","5600","406","5751","","","","","","","","","","","","","","","","","","","","","","","","","","","","","","","","","","","","","","","","","","","","","","","","","","","",""
"","iti_localizer","","html-keyboard-response","111","316995","0.0-2.0-16.0-1.0","32","68112","female","null","","","","null","","14","","","316680","1","","","","","","300","6000","315","6157","300","","","","","","","","","","","","","","","","","","","","","","","","","","","","","","","","","","","","","","","","","","","","","","","","","","",""
"","localizer","","html-keyboard-response","112","317398","0.0-2.0-17.0-0.0","32","68112","female","NaN","","","","null","NaN","15","","Stimuli/Experimental_stims/localizer/faces/abstral-official-cyOKLSgkgCE-unsplash.jpg","316995","1","faces","","0","1","0","400","6300","403","6472","","","","","","","","","","","","","","","","","","","","","","","","","","","","","","","","","","","","","","","","","","","","","","","","","","","",""
"","iti_localizer","","html-keyboard-response","113","317711","0.0-2.0-17.0-1.0","32","68112","female","null","","","","null","","15","","","317398","1","","","","","","300","6700","313","6875","300","","","","","","","","","","","","","","","","","","","","","","","","","","","","","","","","","","","","","","","","","","","","","","","","","","",""
"","localizer","","html-keyboard-response","114","318122","0.0-2.0-18.0-0.0","32","68112","female","NaN","","","","null","NaN","16","","Stimuli/Experimental_stims/localizer/faces/ethan-haddox-__ng3cRXmFE-unsplash.jpg","317711","1","faces","","0","1","0","400","7000","411","7188","","","","","","","","","","","","","","","","","","","","","","","","","","","","","","","","","","","","","","","","","","","","","","","","","","","",""
"","iti_localizer","","html-keyboard-response","115","318433","0.0-2.0-18.0-1.0","32","68112","female","null","","","","null","","16","","","318122","1","","","","","","300","7400","311","7599","300","","","","","","","","","","","","","","","","","","","","","","","","","","","","","","","","","","","","","","","","","","","","","","","","","","",""
"","localizer","","html-keyboard-response","116","318836","0.0-2.0-19.0-0.0","32","68112","female","388","","","","68","0","17","","Stimuli/Experimental_stims/localizer/faces/foto-sushi-6anudmpILw4-unsplash.jpg","318433","1","faces","","0","0","1","400","7700","403","7910","","","","","","","","","","","","","","","","","","","","","","","","","","","","","","","","","","","","","","","","","","","","","","","","","","","",""
"","iti_localizer","","html-keyboard-response","117","319153","0.0-2.0-19.0-1.0","32","68112","female","null","","","","null","","17","","","318836","1","","","","","","300","8100","317","8313","300","","","","","","","","","","","","","","","","","","","","","","","","","","","","","","","","","","","","","","","","","","","","","","","","","","",""
"","localizer","","html-keyboard-response","118","319557","0.0-2.0-20.0-0.0","32","68112","female","352","","","","68","0","18","","Stimuli/Experimental_stims/localizer/faces/christian-ferrer-8vT-DgHZDG4-unsplash.jpg","319153","1","faces","","0","0","1","400","8400","404","8630","","","","","","","","","","","","","","","","","","","","","","","","","","","","","","","","","","","","","","","","","","","","","","","","","","","",""
"","iti_localizer","","html-keyboard-response","119","319864","0.0-2.0-20.0-1.0","32","68112","female","null","","","","null","","18","","","319557","1","","","","","","300","8800","307","9034","300","","","","","","","","","","","","","","","","","","","","","","","","","","","","","","","","","","","","","","","","","","","","","","","","","","",""
"","localizer","","html-keyboard-response","120","320270","0.0-2.0-21.0-0.0","32","68112","female","325","","","","68","0","19","","Stimuli/Experimental_stims/localizer/faces/stephanie-nakagawa-ADSKIn0ScDg-unsplash.jpg","319864","1","faces","","0","0","1","400","9100","406","9341","","","","","","","","","","","","","","","","","","","","","","","","","","","","","","","","","","","","","","","","","","","","","","","","","","","",""
"","iti_localizer","","html-keyboard-response","121","320581","0.0-2.0-21.0-1.0","32","68112","female","null","","","","null","","19","","","320270","1","","","","","","300","9500","311","9747","300","","","","","","","","","","","","","","","","","","","","","","","","","","","","","","","","","","","","","","","","","","","","","","","","","","",""
"","localizer","","html-keyboard-response","122","320985","0.0-2.0-22.0-0.0","32","68112","female","355","","","","75","1","20","","Stimuli/Experimental_stims/localizer/faces/toa-heftiba-2O1EUSTRBrY-unsplash.jpg","320581","1","faces","","1","0","1","400","9800","404","10058","","","","","","","","","","","","","","","","","","","","","","","","","","","","","","","","","","","","","","","","","","","","","","","","","","","",""
"","iti_localizer","","html-keyboard-response","123","321297","0.0-2.0-22.0-1.0","32","68112","female","null","","","","null","","20","","","320985","1","","","","","","300","10200","312","10462","300","","","","","","","","","","","","","","","","","","","","","","","","","","","","","","","","","","","","","","","","","","","","","","","","","","",""
"","localizer","","html-keyboard-response","124","321703","0.0-2.0-23.0-0.0","32","68112","female","235","","","","68","0","21","","Stimuli/Experimental_stims/localizer/faces/darshan-patel-QJEVpydulGs-unsplash.jpg","321297","1","faces","","0","0","1","400","10500","406","10774","","","","","","","","","","","","","","","","","","","","","","","","","","","","","","","","","","","","","","","","","","","","","","","","","","","",""
"","iti_localizer","","html-keyboard-response","125","322015","0.0-2.0-23.0-1.0","32","68112","female","null","","","","null","","21","","","321703","1","","","","","","300","10900","312","11180","300","","","","","","","","","","","","","","","","","","","","","","","","","","","","","","","","","","","","","","","","","","","","","","","","","","",""
"","localizer","","html-keyboard-response","126","322434","0.0-2.0-24.0-0.0","32","68112","female","312","","","","68","0","22","","Stimuli/Experimental_stims/localizer/faces/mubariz-mehdizadeh-o-wlIFT4zE4-unsplash.jpg","322015","1","faces","","0","0","1","400","11200","419","11492","","","","","","","","","","","","","","","","","","","","","","","","","","","","","","","","","","","","","","","","","","","","","","","","","","","",""
"","iti_localizer","","html-keyboard-response","127","322746","0.0-2.0-24.0-1.0","32","68112","female","null","","","","null","","22","","","322434","1","","","","","","300","11600","312","11911","300","","","","","","","","","","","","","","","","","","","","","","","","","","","","","","","","","","","","","","","","","","","","","","","","","","",""
"","localizer","","html-keyboard-response","128","323150","0.0-2.0-25.0-0.0","32","68112","female","312","","","","68","0","23","","Stimuli/Experimental_stims/localizer/faces/midas-hofstra-tidSLv-UaNs-unsplash.jpg","322746","1","faces","","0","0","1","400","11900","404","12223","","","","","","","","","","","","","","","","","","","","","","","","","","","","","","","","","","","","","","","","","","","","","","","","","","","",""
"","iti_localizer","","html-keyboard-response","129","323465","0.0-2.0-25.0-1.0","32","68112","female","null","","","","null","","23","","","323150","1","","","","","","300","12300","315","12627","300","","","","","","","","","","","","","","","","","","","","","","","","","","","","","","","","","","","","","","","","","","","","","","","","","","",""
"","localizer","","html-keyboard-response","130","323869","0.0-2.0-26.0-0.0","32","68112","female","319","","","","68","0","24","","Stimuli/Experimental_stims/localizer/faces/toa-heftiba-O3ymvT7Wf9U-unsplash.jpg","323465","1","faces","","0","0","1","400","12600","404","12942","","","","","","","","","","","","","","","","","","","","","","","","","","","","","","","","","","","","","","","","","","","","","","","","","","","",""
"","iti_localizer","","html-keyboard-response","131","324184","0.0-2.0-26.0-1.0","32","68112","female","null","","","","null","","24","","","323869","1","","","","","","300","13000","315","13346","300","","","","","","","","","","","","","","","","","","","","","","","","","","","","","","","","","","","","","","","","","","","","","","","","","","",""
"","localizer","","html-keyboard-response","132","324590","0.0-2.0-27.0-0.0","32","68112","female","NaN","","","","null","NaN","25","","Stimuli/Experimental_stims/localizer/faces/katsiaryna-endruszkiewicz-BteCp6aq4GI-unsplash.jpg","324184","1","faces","","0","1","0","400","13300","406","13661","","","","","","","","","","","","","","","","","","","","","","","","","","","","","","","","","","","","","","","","","","","","","","","","","","","",""
"","iti_localizer","","html-keyboard-response","133","338594","0.0-2.0-27.0-1.0","32","68112","female","null","","","","null","","25","","","324590","1","","","","","","14000","13700","14004","14067","14000","","","","","","","","","","","","","","","","","","","","","","","","","","","","","","","","","","","","","","","","","","","","","","","","","","",""
"","localizer","","html-keyboard-response","134","339003","0.0-2.0-28.0-0.0","32","68112","female","NaN","","","","null","NaN","26","","Stimuli/Experimental_stims/localizer/outdoor_scenes/jaanus-jagomagi-FddgewYQF2M-unsplash.jpg","338594","1","outdoor_scenes","","0","1","0","400","27700","409","28071","","","","","","","","","","","","","","","","","","","","","","","","","","","","","","","","","","","","","","","","","","","","","","","","","","","",""
"","iti_localizer","","html-keyboard-response","135","339318","0.0-2.0-28.0-1.0","32","68112","female","null","","","","null","","26","","","339003","1","","","","","","300","28100","315","28480","300","","","","","","","","","","","","","","","","","","","","","","","","","","","","","","","","","","","","","","","","","","","","","","","","","","",""
"","localizer","","html-keyboard-response","136","339723","0.0-2.0-29.0-0.0","32","68112","female","NaN","","","","null","NaN","27","","Stimuli/Experimental_stims/localizer/outdoor_scenes/v2osk-1Z2niiBPg5A-unsplash.jpg","339318","1","outdoor_scenes","","1","1","0","400","28400","405","28795","","","","","","","","","","","","","","","","","","","","","","","","","","","","","","","","","","","","","","","","","","","","","","","","","","","",""
"","iti_localizer","","html-keyboard-response","137","340038","0.0-2.0-29.0-1.0","32","68112","female","null","","","","null","","27","","","339723","1","","","","","","300","28800","315","29200","300","","","","","","","","","","","","","","","","","","","","","","","","","","","","","","","","","","","","","","","","","","","","","","","","","","",""
"","localizer","","html-keyboard-response","138","340442","0.0-2.0-30.0-0.0","32","68112","female","NaN","","","","null","NaN","28","","Stimuli/Experimental_stims/localizer/outdoor_scenes/wai-siew-mTFyV8oNDzU-unsplash.jpg","340038","1","outdoor_scenes","","0","1","0","400","29100","404","29515","","","","","","","","","","","","","","","","","","","","","","","","","","","","","","","","","","","","","","","","","","","","","","","","","","","",""
"","iti_localizer","","html-keyboard-response","139","340750","0.0-2.0-30.0-1.0","32","68112","female","null","","","","null","","28","","","340442","1","","","","","","300","29500","308","29919","300","","","","","","","","","","","","","","","","","","","","","","","","","","","","","","","","","","","","","","","","","","","","","","","","","","",""
"","localizer","","html-keyboard-response","140","341153","0.0-2.0-31.0-0.0","32","68112","female","317","","","","68","0","29","","Stimuli/Experimental_stims/localizer/outdoor_scenes/jay-cai-F_laX9E8CUo-unsplash.jpg","340750","1","outdoor_scenes","","0","0","1","400","29800","403","30227","","","","","","","","","","","","","","","","","","","","","","","","","","","","","","","","","","","","","","","","","","","","","","","","","","","",""
"","iti_localizer","","html-keyboard-response","141","341467","0.0-2.0-31.0-1.0","32","68112","female","null","","","","null","","29","","","341153","1","","","","","","300","30200","314","30630","300","","","","","","","","","","","","","","","","","","","","","","","","","","","","","","","","","","","","","","","","","","","","","","","","","","",""
"","localizer","","html-keyboard-response","142","341874","0.0-2.0-32.0-0.0","32","68112","female","252","","","","68","0","30","","Stimuli/Experimental_stims/localizer/outdoor_scenes/jeremy-cai-ucYWe5mzTMU-unsplash.jpg","341467","1","outdoor_scenes","","0","0","1","400","30500","407","30944","","","","","","","","","","","","","","","","","","","","","","","","","","","","","","","","","","","","","","","","","","","","","","","","","","","",""
"","iti_localizer","","html-keyboard-response","143","342185","0.0-2.0-32.0-1.0","32","68112","female","null","","","","null","","30","","","341874","1","","","","","","300","30900","311","31351","300","","","","","","","","","","","","","","","","","","","","","","","","","","","","","","","","","","","","","","","","","","","","","","","","","","",""
"","localizer","","html-keyboard-response","144","342590","0.0-2.0-33.0-0.0","32","68112","female","278","","","","68","0","31","","Stimuli/Experimental_stims/localizer/outdoor_scenes/erol-ahmed-d3pTF3r_hwY-unsplash.jpg","342185","1","outdoor_scenes","","0","0","1","400","31200","405","31662","","","","","","","","","","","","","","","","","","","","","","","","","","","","","","","","","","","","","","","","","","","","","","","","","","","",""
"","iti_localizer","","html-keyboard-response","145","342903","0.0-2.0-33.0-1.0","32","68112","female","null","","","","null","","31","","","342590","1","","","","","","300","31600","313","32067","300","","","","","","","","","","","","","","","","","","","","","","","","","","","","","","","","","","","","","","","","","","","","","","","","","","",""
"","localizer","","html-keyboard-response","146","343321","0.0-2.0-34.0-0.0","32","68112","female","287","","","","68","0","32","","Stimuli/Experimental_stims/localizer/outdoor_scenes/quino-al-vmZ2DehWQ3Q-unsplash.jpg","342903","1","outdoor_scenes","","0","0","1","400","31900","418","32380","","","","","","","","","","","","","","","","","","","","","","","","","","","","","","","","","","","","","","","","","","","","","","","","","","","",""
"","iti_localizer","","html-keyboard-response","147","343633","0.0-2.0-34.0-1.0","32","68112","female","null","","","","null","","32","","","343321","1","","","","","","300","32300","312","32798","300","","","","","","","","","","","","","","","","","","","","","","","","","","","","","","","","","","","","","","","","","","","","","","","","","","",""
"","localizer","","html-keyboard-response","148","344036","0.0-2.0-35.0-0.0","32","68112","female","331","","","","68","0","33","","Stimuli/Experimental_stims/localizer/outdoor_scenes/kenneth-thewissen-D76DklsG-5U-unsplash.jpg","343633","1","outdoor_scenes","","0","0","1","400","32600","403","33110","","","","","","","","","","","","","","","","","","","","","","","","","","","","","","","","","","","","","","","","","","","","","","","","","","","",""
"","iti_localizer","","html-keyboard-response","149","344347","0.0-2.0-35.0-1.0","32","68112","female","null","","","","null","","33","","","344036","1","","","","","","300","33000","311","33513","300","","","","","","","","","","","","","","","","","","","","","","","","","","","","","","","","","","","","","","","","","","","","","","","","","","",""
"","localizer","","html-keyboard-response","150","344751","0.0-2.0-36.0-0.0","32","68112","female","349","","","","68","0","34","","Stimuli/Experimental_stims/localizer/outdoor_scenes/johny-goerend-U_diPCXCBxU-unsplash.jpg","344347","1","outdoor_scenes","","0","0","1","400","33300","404","33824","","","","","","","","","","","","","","","","","","","","","","","","","","","","","","","","","","","","","","","","","","","","","","","","","","","",""
"","iti_localizer","","html-keyboard-response","151","345062","0.0-2.0-36.0-1.0","32","68112","female","null","","","","null","","34","","","344751","1","","","","","","300","33700","311","34228","300","","","","","","","","","","","","","","","","","","","","","","","","","","","","","","","","","","","","","","","","","","","","","","","","","","",""
"","localizer","","html-keyboard-response","152","345478","0.0-2.0-37.0-0.0","32","68112","female","298","","","","68","0","35","","Stimuli/Experimental_stims/localizer/outdoor_scenes/ken-cheung-KonWFWUaAuk-unsplash.jpg","345062","1","outdoor_scenes","","0","0","1","400","34000","416","34539","","","","","","","","","","","","","","","","","","","","","","","","","","","","","","","","","","","","","","","","","","","","","","","","","","","",""
"","iti_localizer","","html-keyboard-response","153","345791","0.0-2.0-37.0-1.0","32","68112","female","null","","","","null","","35","","","345478","1","","","","","","300","34400","313","34955","300","","","","","","","","","","","","","","","","","","","","","","","","","","","","","","","","","","","","","","","","","","","","","","","","","","",""
"","localizer","","html-keyboard-response","154","346197","0.0-2.0-38.0-0.0","32","68112","female","318","","","","68","0","36","","Stimuli/Experimental_stims/localizer/outdoor_scenes/alessio-furlan-Vw3a0HgE7AM-unsplash.jpg","345791","1","outdoor_scenes","","0","0","1","400","34700","406","35268","","","","","","","","","","","","","","","","","","","","","","","","","","","","","","","","","","","","","","","","","","","","","","","","","","","",""
"","iti_localizer","","html-keyboard-response","155","346510","0.0-2.0-38.0-1.0","32","68112","female","null","","","","null","","36","","","346197","1","","","","","","300","35100","313","35674","300","","","","","","","","","","","","","","","","","","","","","","","","","","","","","","","","","","","","","","","","","","","","","","","","","","",""
"","localizer","","html-keyboard-response","156","346915","0.0-2.0-39.0-0.0","32","68112","female","379","","","","68","0","37","","Stimuli/Experimental_stims/localizer/outdoor_scenes/ricardo-gomez-angel-dTSaC-S-7fs-unsplash.jpg","346510","1","outdoor_scenes","","0","0","1","400","35400","405","35987","","","","","","","","","","","","","","","","","","","","","","","","","","","","","","","","","","","","","","","","","","","","","","","","","","","",""
"","iti_localizer","","html-keyboard-response","157","347227","0.0-2.0-39.0-1.0","32","68112","female","null","","","","null","","37","","","346915","1","","","","","","300","35800","312","36392","300","","","","","","","","","","","","","","","","","","","","","","","","","","","","","","","","","","","","","","","","","","","","","","","","","","",""
"","localizer","","html-keyboard-response","158","347631","0.0-2.0-40.0-0.0","32","68112","female","359","","","","68","0","38","","Stimuli/Experimental_stims/localizer/outdoor_scenes/samuel-ferrara-IEHPDNk2-8w-unsplash.jpg","347227","1","outdoor_scenes","","0","0","1","400","36100","404","36704","","","","","","","","","","","","","","","","","","","","","","","","","","","","","","","","","","","","","","","","","","","","","","","","","","","",""
"","iti_localizer","","html-keyboard-response","159","347948","0.0-2.0-40.0-1.0","32","68112","female","null","","","","null","","38","","","347631","1","","","","","","300","36500","317","37108","300","","","","","","","","","","","","","","","","","","","","","","","","","","","","","","","","","","","","","","","","","","","","","","","","","","",""
"","localizer","","html-keyboard-response","160","348367","0.0-2.0-41.0-0.0","32","68112","female","298","","","","68","0","39","","Stimuli/Experimental_stims/localizer/outdoor_scenes/pietro-de-grandi-T7K4aEPoGGk-unsplash.jpg","347948","1","outdoor_scenes","","0","0","1","400","36800","419","37425","","","","","","","","","","","","","","","","","","","","","","","","","","","","","","","","","","","","","","","","","","","","","","","","","","","",""
"","iti_localizer","","html-keyboard-response","161","348677","0.0-2.0-41.0-1.0","32","68112","female","null","","","","null","","39","","","348367","1","","","","","","300","37200","310","37844","300","","","","","","","","","","","","","","","","","","","","","","","","","","","","","","","","","","","","","","","","","","","","","","","","","","",""
"","localizer","","html-keyboard-response","162","349082","0.0-2.0-42.0-0.0","32","68112","female","307","","","","68","0","40","","Stimuli/Experimental_stims/localizer/outdoor_scenes/tomasz-filipek-CUWC-6MRcNg-unsplash.jpg","348677","1","outdoor_scenes","","0","0","1","400","37500","405","38154","","","","","","","","","","","","","","","","","","","","","","","","","","","","","","","","","","","","","","","","","","","","","","","","","","","",""
"","iti_localizer","","html-keyboard-response","163","349395","0.0-2.0-42.0-1.0","32","68112","female","null","","","","null","","40","","","349082","1","","","","","","300","37900","313","38559","300","","","","","","","","","","","","","","","","","","","","","","","","","","","","","","","","","","","","","","","","","","","","","","","","","","",""
"","localizer","","html-keyboard-response","164","349800","0.0-2.0-43.0-0.0","32","68112","female","307","","","","68","0","41","","Stimuli/Experimental_stims/localizer/outdoor_scenes/cayetano-gil-rguHxZmOF5U-unsplash.jpg","349395","1","outdoor_scenes","","0","0","1","400","38200","405","38872","","","","","","","","","","","","","","","","","","","","","","","","","","","","","","","","","","","","","","","","","","","","","","","","","","","",""
"","iti_localizer","","html-keyboard-response","165","350112","0.0-2.0-43.0-1.0","32","68112","female","null","","","","null","","41","","","349800","1","","","","","","300","38600","312","39277","300","","","","","","","","","","","","","","","","","","","","","","","","","","","","","","","","","","","","","","","","","","","","","","","","","","",""
"","localizer","","html-keyboard-response","166","350516","0.0-2.0-44.0-0.0","32","68112","female","347","","","","68","0","42","","Stimuli/Experimental_stims/localizer/outdoor_scenes/nikola-majksner-hXNGeAFOgT4-unsplash.jpg","350112","1","outdoor_scenes","","0","0","1","400","38900","404","39589","","","","","","","","","","","","","","","","","","","","","","","","","","","","","","","","","","","","","","","","","","","","","","","","","","","",""
"","iti_localizer","","html-keyboard-response","167","350833","0.0-2.0-44.0-1.0","32","68112","female","null","","","","null","","42","","","350516","1","","","","","","300","39300","317","39993","300","","","","","","","","","","","","","","","","","","","","","","","","","","","","","","","","","","","","","","","","","","","","","","","","","","",""
"","localizer","","html-keyboard-response","168","351241","0.0-2.0-45.0-0.0","32","68112","female","NaN","","","","null","NaN","43","","Stimuli/Experimental_stims/localizer/outdoor_scenes/wil-stewart-pHANr-CpbYM-unsplash.jpg","350833","1","outdoor_scenes","","1","1","0","400","39600","408","40310","","","","","","","","","","","","","","","","","","","","","","","","","","","","","","","","","","","","","","","","","","","","","","","","","","","",""
"","iti_localizer","","html-keyboard-response","169","351551","0.0-2.0-45.0-1.0","32","68112","female","null","","","","null","","43","","","351241","1","","","","","","300","40000","310","40718","300","","","","","","","","","","","","","","","","","","","","","","","","","","","","","","","","","","","","","","","","","","","","","","","","","","",""
"","localizer","","html-keyboard-response","170","351957","0.0-2.0-46.0-0.0","32","68112","female","209","","","","68","0","44","","Stimuli/Experimental_stims/localizer/outdoor_scenes/chang-qing-2YQoKbyGvDc-unsplash.jpg","351551","1","outdoor_scenes","","0","0","1","400","40300","406","41028","","","","","","","","","","","","","","","","","","","","","","","","","","","","","","","","","","","","","","","","","","","","","","","","","","","",""
"","iti_localizer","","html-keyboard-response","171","352270","0.0-2.0-46.0-1.0","32","68112","female","null","","","","null","","44","","","351957","1","","","","","","300","40700","313","41434","300","","","","","","","","","","","","","","","","","","","","","","","","","","","","","","","","","","","","","","","","","","","","","","","","","","",""
"","localizer","","html-keyboard-response","172","352688","0.0-2.0-47.0-0.0","32","68112","female","243","","","","68","0","45","","Stimuli/Experimental_stims/localizer/outdoor_scenes/solotravelgoals-7kLufxYoqWk-unsplash.jpg","352270","1","outdoor_scenes","","0","0","1","400","41000","418","41747","","","","","","","","","","","","","","","","","","","","","","","","","","","","","","","","","","","","","","","","","","","","","","","","","","","",""
"","iti_localizer","","html-keyboard-response","173","366697","0.0-2.0-47.0-1.0","32","68112","female","null","","","","null","","45","","","352688","1","","","","","","14000","41400","14009","42165","14000","","","","","","","","","","","","","","","","","","","","","","","","","","","","","","","","","","","","","","","","","","","","","","","","","","",""
"","localizer","","html-keyboard-response","174","367103","0.0-2.0-48.0-0.0","32","68112","female","351","","","","68","0","46","","Stimuli/Experimental_stims/localizer/body_parts/jeremy-bishop-mLd3hAaH2ns-unsplash.jpg","366697","1","body_parts","","0","0","1","400","55400","406","56174","","","","","","","","","","","","","","","","","","","","","","","","","","","","","","","","","","","","","","","","","","","","","","","","","","","",""
"","iti_localizer","","html-keyboard-response","175","367414","0.0-2.0-48.0-1.0","32","68112","female","null","","","","null","","46","","","367103","1","","","","","","300","55800","311","56580","300","","","","","","","","","","","","","","","","","","","","","","","","","","","","","","","","","","","","","","","","","","","","","","","","","","",""
"","localizer","","html-keyboard-response","176","367833","0.0-2.0-49.0-0.0","32","68112","female","275","","","","68","0","47","","Stimuli/Experimental_stims/localizer/body_parts/lilartsy-1KkhQ8uL28g-unsplash.jpg","367414","1","body_parts","","0","0","1","400","56100","419","56891","","","","","","","","","","","","","","","","","","","","","","","","","","","","","","","","","","","","","","","","","","","","","","","","","","","",""
"","iti_localizer","","html-keyboard-response","177","368144","0.0-2.0-49.0-1.0","32","68112","female","null","","","","null","","47","","","367833","1","","","","","","300","56500","311","57310","300","","","","","","","","","","","","","","","","","","","","","","","","","","","","","","","","","","","","","","","","","","","","","","","","","","",""
"","localizer","","html-keyboard-response","178","368547","0.0-2.0-50.0-0.0","32","68112","female","313","","","","68","0","48","","Stimuli/Experimental_stims/localizer/body_parts/toa-heftiba-qxvWnfHb3-M-unsplash.jpg","368144","1","body_parts","","0","0","1","400","56800","403","57621","","","","","","","","","","","","","","","","","","","","","","","","","","","","","","","","","","","","","","","","","","","","","","","","","","","",""
"","iti_localizer","","html-keyboard-response","179","368861","0.0-2.0-50.0-1.0","32","68112","female","null","","","","null","","48","","","368547","1","","","","","","300","57200","314","58024","300","","","","","","","","","","","","","","","","","","","","","","","","","","","","","","","","","","","","","","","","","","","","","","","","","","",""
"","localizer","","html-keyboard-response","180","369264","0.0-2.0-51.0-0.0","32","68112","female","397","","","","75","1","49","","Stimuli/Experimental_stims/localizer/body_parts/callum-skelton-3KLMq7y46nA-unsplash.jpg","368861","1","body_parts","","1","0","1","400","57500","403","58338","","","","","","","","","","","","","","","","","","","","","","","","","","","","","","","","","","","","","","","","","","","","","","","","","","","",""
"","iti_localizer","","html-keyboard-response","181","369575","0.0-2.0-51.0-1.0","32","68112","female","null","","","","null","","49","","","369264","1","","","","","","300","57900","311","58741","300","","","","","","","","","","","","","","","","","","","","","","","","","","","","","","","","","","","","","","","","","","","","","","","","","","",""
"","localizer","","html-keyboard-response","182","369985","0.0-2.0-52.0-0.0","32","68112","female","399","","","","68","0","50","","Stimuli/Experimental_stims/localizer/body_parts/ant-rozetsky-bXQd8JXx0vs-unsplash.jpg","369575","1","body_parts","","0","0","1","400","58200","410","59052","","","","","","","","","","","","","","","","","","","","","","","","","","","","","","","","","","","","","","","","","","","","","","","","","","","",""
"","iti_localizer","","html-keyboard-response","183","370296","0.0-2.0-52.0-1.0","32","68112","female","null","","","","null","","50","","","369985","1","","","","","","300","58600","311","59462","300","","","","","","","","","","","","","","","","","","","","","","","","","","","","","","","","","","","","","","","","","","","","","","","","","","",""
"","localizer","","html-keyboard-response","184","370703","0.0-2.0-53.0-0.0","32","68112","female","345","","","","68","0","51","","Stimuli/Experimental_stims/localizer/body_parts/boyd-christiansen-uVj7kewrZ-o-unsplash.jpg","370296","1","body_parts","","0","0","1","400","58900","407","59773","","","","","","","","","","","","","","","","","","","","","","","","","","","","","","","","","","","","","","","","","","","","","","","","","","","",""
"","iti_localizer","","html-keyboard-response","185","371012","0.0-2.0-53.0-1.0","32","68112","female","null","","","","null","","51","","","370703","1","","","","","","300","59300","309","60180","300","","","","","","","","","","","","","","","","","","","","","","","","","","","","","","","","","","","","","","","","","","","","","","","","","","",""
"","localizer","","html-keyboard-response","186","371416","0.0-2.0-54.0-0.0","32","68112","female","301","","","","68","0","52","","Stimuli/Experimental_stims/localizer/body_parts/helen-ast-l2iY5Sh0mTg-unsplash.jpg","371012","1","body_parts","","0","0","1","400","59600","404","60489","","","","","","","","","","","","","","","","","","","","","","","","","","","","","","","","","","","","","","","","","","","","","","","","","","","",""
"","iti_localizer","","html-keyboard-response","187","371721","0.0-2.0-54.0-1.0","32","68112","female","null","","","","null","","52","","","371416","1","","","","","","300","60000","305","60893","300","","","","","","","","","","","","","","","","","","","","","","","","","","","","","","","","","","","","","","","","","","","","","","","","","","",""
"","localizer","","html-keyboard-response","188","372124","0.0-2.0-55.0-0.0","32","68112","female","307","","","","68","0","53","","Stimuli/Experimental_stims/localizer/body_parts/pure-julia-E9Q4bqYHtIM-unsplash.jpg","371721","1","body_parts","","0","0","1","400","60300","403","61198","","","","","","","","","","","","","","","","","","","","","","","","","","","","","","","","","","","","","","","","","","","","","","","","","","","",""
"","iti_localizer","","html-keyboard-response","189","372436","0.0-2.0-55.0-1.0","32","68112","female","null","","","","null","","53","","","372124","1","","","","","","300","60700","312","61601","300","","","","","","","","","","","","","","","","","","","","","","","","","","","","","","","","","","","","","","","","","","","","","","","","","","",""
"","localizer","","html-keyboard-response","190","372839","0.0-2.0-56.0-0.0","32","68112","female","316","","","","68","0","54","","Stimuli/Experimental_stims/localizer/body_parts/sina-rezakhani-d1gQi0Jl05U-unsplash (1).jpg","372436","1","body_parts","","0","0","1","400","61000","403","61913","","","","","","","","","","","","","","","","","","","","","","","","","","","","","","","","","","","","","","","","","","","","","","","","","","","",""
"","iti_localizer","","html-keyboard-response","191","373153","0.0-2.0-56.0-1.0","32","68112","female","null","","","","null","","54","","","372839","1","","","","","","300","61400","314","62316","300","","","","","","","","","","","","","","","","","","","","","","","","","","","","","","","","","","","","","","","","","","","","","","","","","","",""
"","localizer","","html-keyboard-response","192","373559","0.0-2.0-57.0-0.0","32","68112","female","351","","","","68","0","55","","Stimuli/Experimental_stims/localizer/body_parts/megan-menegay-UojxG_BJxnI-unsplash.jpg","373153","1","body_parts","","0","0","1","400","61700","406","62630","","","","","","","","","","","","","","","","","","","","","","","","","","","","","","","","","","","","","","","","","","","","","","","","","","","",""
"","iti_localizer","","html-keyboard-response","193","373872","0.0-2.0-57.0-1.0","32","68112","female","null","","","","null","","55","","","373559","1","","","","","","300","62100","313","63036","300","","","","","","","","","","","","","","","","","","","","","","","","","","","","","","","","","","","","","","","","","","","","","","","","","","",""
"","localizer","","html-keyboard-response","194","374276","0.0-2.0-58.0-0.0","32","68112","female","360","","","","68","0","56","","Stimuli/Experimental_stims/localizer/body_parts/sincerely-media-7TBFwUQA6Xk-unsplash.jpg","373872","1","body_parts","","0","0","1","400","62400","404","63349","","","","","","","","","","","","","","","","","","","","","","","","","","","","","","","","","","","","","","","","","","","","","","","","","","","",""
"","iti_localizer","","html-keyboard-response","195","374586","0.0-2.0-58.0-1.0","32","68112","female","null","","","","null","","56","","","374276","1","","","","","","300","62800","310","63753","300","","","","","","","","","","","","","","","","","","","","","","","","","","","","","","","","","","","","","","","","","","","","","","","","","","",""
"","localizer","","html-keyboard-response","196","374990","0.0-2.0-59.0-0.0","32","68112","female","336","","","","68","0","57","","Stimuli/Experimental_stims/localizer/body_parts/sincerely-media-pdynOoM7xmA-unsplash.jpg","374586","1","body_parts","","0","0","1","400","63100","404","64063","","","","","","","","","","","","","","","","","","","","","","","","","","","","","","","","","","","","","","","","","","","","","","","","","","","",""
"","iti_localizer","","html-keyboard-response","197","375303","0.0-2.0-59.0-1.0","32","68112","female","null","","","","null","","57","","","374990","1","","","","","","300","63500","313","64467","300","","","","","","","","","","","","","","","","","","","","","","","","","","","","","","","","","","","","","","","","","","","","","","","","","","",""
"","localizer","","html-keyboard-response","198","375707","0.0-2.0-60.0-0.0","32","68112","female","339","","","","68","0","58","","Stimuli/Experimental_stims/localizer/body_parts/adrien-king-XzBluXxBoyQ-unsplash.jpg","375303","1","body_parts","","0","0","1","400","63800","404","64780","","","","","","","","","","","","","","","","","","","","","","","","","","","","","","","","","","","","","","","","","","","","","","","","","","","",""
"","iti_localizer","","html-keyboard-response","199","376019","0.0-2.0-60.0-1.0","32","68112","female","null","","","","null","","58","","","375707","1","","","","","","300","64200","312","65184","300","","","","","","","","","","","","","","","","","","","","","","","","","","","","","","","","","","","","","","","","","","","","","","","","","","",""
"","localizer","","html-keyboard-response","200","376423","0.0-2.0-61.0-0.0","32","68112","female","360","","","","75","1","59","","Stimuli/Experimental_stims/localizer/body_parts/nattalia-nunez-MB9sdDfZMSg-unsplash.jpg","376019","1","body_parts","","1","0","1","400","64500","404","65496","","","","","","","","","","","","","","","","","","","","","","","","","","","","","","","","","","","","","","","","","","","","","","","","","","","",""
"","iti_localizer","","html-keyboard-response","201","376734","0.0-2.0-61.0-1.0","32","68112","female","null","","","","null","","59","","","376423","1","","","","","","300","64900","311","65900","300","","","","","","","","","","","","","","","","","","","","","","","","","","","","","","","","","","","","","","","","","","","","","","","","","","",""
"","localizer","","html-keyboard-response","202","377144","0.0-2.0-62.0-0.0","32","68112","female","173","","","","68","0","60","","Stimuli/Experimental_stims/localizer/body_parts/louis-hansel-FjKTMRTQYAs-unsplash.jpg","376734","1","body_parts","","0","0","1","400","65200","410","66211","","","","","","","","","","","","","","","","","","","","","","","","","","","","","","","","","","","","","","","","","","","","","","","","","","","",""
"","iti_localizer","","html-keyboard-response","203","377455","0.0-2.0-62.0-1.0","32","68112","female","null","","","","null","","60","","","377144","1","","","","","","300","65600","311","66621","300","","","","","","","","","","","","","","","","","","","","","","","","","","","","","","","","","","","","","","","","","","","","","","","","","","",""
"","localizer","","html-keyboard-response","204","377872","0.0-2.0-63.0-0.0","32","68112","female","276","","","","68","0","61","","Stimuli/Experimental_stims/localizer/body_parts/jonathan-borba-hTwH8QFkPMs-unsplash.jpg","377455","1","body_parts","","0","0","1","400","65900","417","66932","","","","","","","","","","","","","","","","","","","","","","","","","","","","","","","","","","","","","","","","","","","","","","","","","","","",""
"","iti_localizer","","html-keyboard-response","205","378186","0.0-2.0-63.0-1.0","32","68112","female","null","","","","null","","61","","","377872","1","","","","","","300","66300","314","67349","300","","","","","","","","","","","","","","","","","","","","","","","","","","","","","","","","","","","","","","","","","","","","","","","","","","",""
"","localizer","","html-keyboard-response","206","378605","0.0-2.0-64.0-0.0","32","68112","female","306","","","","68","0","62","","Stimuli/Experimental_stims/localizer/body_parts/hu-chen-tCbTGNwrFNM-unsplash.jpg","378186","1","body_parts","","0","0","1","400","66600","419","67663","","","","","","","","","","","","","","","","","","","","","","","","","","","","","","","","","","","","","","","","","","","","","","","","","","","",""
"","iti_localizer","","html-keyboard-response","207","378916","0.0-2.0-64.0-1.0","32","68112","female","null","","","","null","","62","","","378605","1","","","","","","300","67000","311","68082","300","","","","","","","","","","","","","","","","","","","","","","","","","","","","","","","","","","","","","","","","","","","","","","","","","","",""
"","localizer","","html-keyboard-response","208","379319","0.0-2.0-65.0-0.0","32","68112","female","327","","","","68","0","63","","Stimuli/Experimental_stims/localizer/body_parts/danie-franco-jyyNiSEcCl4-unsplash.jpg","378916","1","body_parts","","0","0","1","400","67300","403","68393","","","","","","","","","","","","","","","","","","","","","","","","","","","","","","","","","","","","","","","","","","","","","","","","","","","",""
"","iti_localizer","","html-keyboard-response","209","379632","0.0-2.0-65.0-1.0","32","68112","female","null","","","","null","","63","","","379319","1","","","","","","300","67700","313","68796","300","","","","","","","","","","","","","","","","","","","","","","","","","","","","","","","","","","","","","","","","","","","","","","","","","","",""
"","localizer","","html-keyboard-response","210","380036","0.0-2.0-66.0-0.0","32","68112","female","323","","","","68","0","64","","Stimuli/Experimental_stims/localizer/body_parts/natalie-grainger-8uB5kFKWWkk-unsplash.jpg","379632","1","body_parts","","0","0","1","400","68000","404","69109","","","","","","","","","","","","","","","","","","","","","","","","","","","","","","","","","","","","","","","","","","","","","","","","","","","",""
"","iti_localizer","","html-keyboard-response","211","380345","0.0-2.0-66.0-1.0","32","68112","female","null","","","","null","","64","","","380036","1","","","","","","300","68400","309","69513","300","","","","","","","","","","","","","","","","","","","","","","","","","","","","","","","","","","","","","","","","","","","","","","","","","","",""
"","localizer","","html-keyboard-response","212","380750","0.0-2.0-67.0-0.0","32","68112","female","340","","","","68","0","65","","Stimuli/Experimental_stims/localizer/body_parts/apostolos-vamvouras-g5wKHRu2QW0-unsplash.jpg","380345","1","body_parts","","0","0","1","400","68700","405","69822","","","","","","","","","","","","","","","","","","","","","","","","","","","","","","","","","","","","","","","","","","","","","","","","","","","",""
"","iti_localizer","","html-keyboard-response","213","394766","0.0-2.0-67.0-1.0","32","68112","female","null","","","","null","","65","","","380750","1","","","","","","14000","69100","14016","70227","14000","","","","","","","","","","","","","","","","","","","","","","","","","","","","","","","","","","","","","","","","","","","","","","","","","","",""
"","localizer","","html-keyboard-response","214","395177","0.0-2.0-68.0-0.0","32","68112","female","NaN","","","","null","NaN","66","","Stimuli/Experimental_stims/localizer/objects/quaritsch-photography-lZ8onQ1wuY8-unsplash.jpg","394766","1","objects","","1","1","0","400","83100","411","84243","","","","","","","","","","","","","","","","","","","","","","","","","","","","","","","","","","","","","","","","","","","","","","","","","","","",""
"","iti_localizer","","html-keyboard-response","215","395486","0.0-2.0-68.0-1.0","32","68112","female","null","","","","null","","66","","","395177","1","","","","","","300","83500","309","84654","300","","","","","","","","","","","","","","","","","","","","","","","","","","","","","","","","","","","","","","","","","","","","","","","","","","",""
"","localizer","","html-keyboard-response","216","395890","0.0-2.0-69.0-0.0","32","68112","female","373","","","","68","0","67","","Stimuli/Experimental_stims/localizer/objects/ana-9GmAaEMMKho-unsplash.jpg","395486","1","objects","","0","0","1","400","83800","404","84963","","","","","","","","","","","","","","","","","","","","","","","","","","","","","","","","","","","","","","","","","","","","","","","","","","","",""
"","iti_localizer","","html-keyboard-response","217","396205","0.0-2.0-69.0-1.0","32","68112","female","null","","","","null","","67","","","395890","1","","","","","","300","84200","315","85367","300","","","","","","","","","","","","","","","","","","","","","","","","","","","","","","","","","","","","","","","","","","","","","","","","","","",""
"","localizer","","html-keyboard-response","218","396612","0.0-2.0-70.0-0.0","32","68112","female","286","","","","68","0","68","","Stimuli/Experimental_stims/localizer/objects/nordwood-themes-nDd3dIkkOLo-unsplash.jpg","396205","1","objects","","0","0","1","400","84500","407","85682","","","","","","","","","","","","","","","","","","","","","","","","","","","","","","","","","","","","","","","","","","","","","","","","","","","",""
"","iti_localizer","","html-keyboard-response","219","396926","0.0-2.0-70.0-1.0","32","68112","female","null","","","","null","","68","","","396612","1","","","","","","300","84900","314","86089","300","","","","","","","","","","","","","","","","","","","","","","","","","","","","","","","","","","","","","","","","","","","","","","","","","","",""
"","localizer","","html-keyboard-response","220","397330","0.0-2.0-71.0-0.0","32","68112","female","315","","","","68","0","69","","Stimuli/Experimental_stims/localizer/objects/kelly-jean-cKjbI0Y00X0-unsplash.jpg","396926","1","objects","","0","0","1","400","85200","404","86403","","","","","","","","","","","","","","","","","","","","","","","","","","","","","","","","","","","","","","","","","","","","","","","","","","","",""
"","iti_localizer","","html-keyboard-response","221","397643","0.0-2.0-71.0-1.0","32","68112","female","null","","","","null","","69","","","397330","1","","","","","","300","85600","313","86807","300","","","","","","","","","","","","","","","","","","","","","","","","","","","","","","","","","","","","","","","","","","","","","","","","","","",""
"","localizer","","html-keyboard-response","222","398046","0.0-2.0-72.0-0.0","32","68112","female","342","","","","68","0","70","","Stimuli/Experimental_stims/localizer/objects/florian-klauer-nptLmg6jqDo-unsplash.jpg","397643","1","objects","","0","0","1","400","85900","403","87120","","","","","","","","","","","","","","","","","","","","","","","","","","","","","","","","","","","","","","","","","","","","","","","","","","","",""
"","iti_localizer","","html-keyboard-response","223","398359","0.0-2.0-72.0-1.0","32","68112","female","null","","","","null","","70","","","398046","1","","","","","","300","86300","313","87523","300","","","","","","","","","","","","","","","","","","","","","","","","","","","","","","","","","","","","","","","","","","","","","","","","","","",""
"","localizer","","html-keyboard-response","224","398761","0.0-2.0-73.0-0.0","32","68112","female","335","","","","68","0","71","","Stimuli/Experimental_stims/localizer/objects/nicolas-hippert-SVgX47QIUlc-unsplash.jpg","398359","1","objects","","0","0","1","400","86600","402","87836","","","","","","","","","","","","","","","","","","","","","","","","","","","","","","","","","","","","","","","","","","","","","","","","","","","",""
"","iti_localizer","","html-keyboard-response","225","399080","0.0-2.0-73.0-1.0","32","68112","female","null","","","","null","","71","","","398761","1","","","","","","300","87000","319","88238","300","","","","","","","","","","","","","","","","","","","","","","","","","","","","","","","","","","","","","","","","","","","","","","","","","","",""
"","localizer","","html-keyboard-response","226","399487","0.0-2.0-74.0-0.0","32","68112","female","405","","","","68","0","72","","Stimuli/Experimental_stims/localizer/objects/florian-klauer-mk7D-4UCfmg-unsplash.jpg","399080","1","objects","","0","0","1","400","87300","407","88557","","","","","","","","","","","","","","","","","","","","","","","","","","","","","","","","","","","","","","","","","","","","","","","","","","","",""
"","iti_localizer","","html-keyboard-response","227","399792","0.0-2.0-74.0-1.0","32","68112","female","null","","","","null","","72","","","399487","1","","","","","","300","87700","305","88964","300","","","","","","","","","","","","","","","","","","","","","","","","","","","","","","","","","","","","","","","","","","","","","","","","","","",""
"","localizer","","html-keyboard-response","228","400196","0.0-2.0-75.0-0.0","32","68112","female","359","","","","68","0","73","","Stimuli/Experimental_stims/localizer/objects/alex-lvrs-2zDw14yCYqk-unsplash.jpg","399792","1","objects","","0","0","1","400","88000","404","89269","","","","","","","","","","","","","","","","","","","","","","","","","","","","","","","","","","","","","","","","","","","","","","","","","","","",""
"","iti_localizer","","html-keyboard-response","229","400510","0.0-2.0-75.0-1.0","32","68112","female","null","","","","null","","73","","","400196","1","","","","","","300","88400","314","89673","300","","","","","","","","","","","","","","","","","","","","","","","","","","","","","","","","","","","","","","","","","","","","","","","","","","",""
"","localizer","","html-keyboard-response","230","400915","0.0-2.0-76.0-0.0","32","68112","female","290","","","","68","0","74","","Stimuli/Experimental_stims/localizer/objects/hipster-mum-XookgCxFw6Q-unsplash.jpg","400510","1","objects","","0","0","1","400","88700","405","89987","","","","","","","","","","","","","","","","","","","","","","","","","","","","","","","","","","","","","","","","","","","","","","","","","","","",""
"","iti_localizer","","html-keyboard-response","231","401228","0.0-2.0-76.0-1.0","32","68112","female","null","","","","null","","74","","","400915","1","","","","","","300","89100","313","90392","300","","","","","","","","","","","","","","","","","","","","","","","","","","","","","","","","","","","","","","","","","","","","","","","","","","",""
"","localizer","","html-keyboard-response","232","401646","0.0-2.0-77.0-0.0","32","68112","female","362","","","","68","0","75","","Stimuli/Experimental_stims/localizer/objects/ian-talmacs-ugqU0a4P18U-unsplash.jpg","401228","1","objects","","0","0","1","400","89400","418","90705","","","","","","","","","","","","","","","","","","","","","","","","","","","","","","","","","","","","","","","","","","","","","","","","","","","",""
"","iti_localizer","","html-keyboard-response","233","401960","0.0-2.0-77.0-1.0","32","68112","female","null","","","","null","","75","","","401646","1","","","","","","300","89800","314","91123","300","","","","","","","","","","","","","","","","","","","","","","","","","","","","","","","","","","","","","","","","","","","","","","","","","","",""
"","localizer","","html-keyboard-response","234","402365","0.0-2.0-78.0-0.0","32","68112","female","327","","","","68","0","76","","Stimuli/Experimental_stims/localizer/objects/chris-briggs-FobzAZJGM9M-unsplash.jpg","401960","1","objects","","0","0","1","400","90100","405","91437","","","","","","","","","","","","","","","","","","","","","","","","","","","","","","","","","","","","","","","","","","","","","","","","","","","",""
"","iti_localizer","","html-keyboard-response","235","402674","0.0-2.0-78.0-1.0","32","68112","female","null","","","","null","","76","","","402365","1","","","","","","300","90500","309","91842","300","","","","","","","","","","","","","","","","","","","","","","","","","","","","","","","","","","","","","","","","","","","","","","","","","","",""
"","localizer","","html-keyboard-response","236","403079","0.0-2.0-79.0-0.0","32","68112","female","300","","","","68","0","77","","Stimuli/Experimental_stims/localizer/objects/recha-oktaviani-t__61ap00Mc-unsplash.jpg","402674","1","objects","","0","0","1","400","90800","405","92151","","","","","","","","","","","","","","","","","","","","","","","","","","","","","","","","","","","","","","","","","","","","","","","","","","","",""
"","iti_localizer","","html-keyboard-response","237","403388","0.0-2.0-79.0-1.0","32","68112","female","null","","","","null","","77","","","403079","1","","","","","","300","91200","309","92556","300","","","","","","","","","","","","","","","","","","","","","","","","","","","","","","","","","","","","","","","","","","","","","","","","","","",""
"","localizer","","html-keyboard-response","238","403799","0.0-2.0-80.0-0.0","32","68112","female","293","","","","68","0","78","","Stimuli/Experimental_stims/localizer/objects/jonny-caspari-wsvCC6UyKjs-unsplash.jpg","403388","1","objects","","0","0","1","400","91500","411","92865","","","","","","","","","","","","","","","","","","","","","","","","","","","","","","","","","","","","","","","","","","","","","","","","","","","",""
"","iti_localizer","","html-keyboard-response","239","404110","0.0-2.0-80.0-1.0","32","68112","female","null","","","","null","","78","","","403799","1","","","","","","300","91900","311","93276","300","","","","","","","","","","","","","","","","","","","","","","","","","","","","","","","","","","","","","","","","","","","","","","","","","","",""
"","localizer","","html-keyboard-response","240","404513","0.0-2.0-81.0-0.0","32","68112","female","394","","","","68","0","79","","Stimuli/Experimental_stims/localizer/objects/markus-spiske-ANrVtttbNss-unsplash.jpg","404110","1","objects","","0","0","1","400","92200","403","93587","","","","","","","","","","","","","","","","","","","","","","","","","","","","","","","","","","","","","","","","","","","","","","","","","","","",""
"","iti_localizer","","html-keyboard-response","241","404824","0.0-2.0-81.0-1.0","32","68112","female","null","","","","null","","79","","","404513","1","","","","","","300","92600","311","93990","300","","","","","","","","","","","","","","","","","","","","","","","","","","","","","","","","","","","","","","","","","","","","","","","","","","",""
"","localizer","","html-keyboard-response","242","405229","0.0-2.0-82.0-0.0","32","68112","female","NaN","","","","null","NaN","80","","Stimuli/Experimental_stims/localizer/objects/ignat-dolomanov-kFBDVnmskPA-unsplash.jpg","404824","1","objects","","0","1","0","400","92900","405","94301","","","","","","","","","","","","","","","","","","","","","","","","","","","","","","","","","","","","","","","","","","","","","","","","","","","",""
"","iti_localizer","","html-keyboard-response","243","405542","0.0-2.0-82.0-1.0","32","68112","female","null","","","","null","","80","","","405229","1","","","","","","300","93300","313","94706","300","","","","","","","","","","","","","","","","","","","","","","","","","","","","","","","","","","","","","","","","","","","","","","","","","","",""
"","localizer","","html-keyboard-response","244","405945","0.0-2.0-83.0-0.0","32","68112","female","331","","","","68","0","81","","Stimuli/Experimental_stims/localizer/objects/mockup-graphics-Pj2PY-E-LfM-unsplash.jpg","405542","1","objects","","0","0","1","400","93600","403","95019","","","","","","","","","","","","","","","","","","","","","","","","","","","","","","","","","","","","","","","","","","","","","","","","","","","",""
"","iti_localizer","","html-keyboard-response","245","406256","0.0-2.0-83.0-1.0","32","68112","female","null","","","","null","","81","","","405945","1","","","","","","300","94000","311","95422","300","","","","","","","","","","","","","","","","","","","","","","","","","","","","","","","","","","","","","","","","","","","","","","","","","","",""
"","localizer","","html-keyboard-response","246","406659","0.0-2.0-84.0-0.0","32","68112","female","308","","","","68","0","82","","Stimuli/Experimental_stims/localizer/objects/lance-reis-v0FYj9iioQg-unsplash.jpg","406256","1","objects","","0","0","1","400","94300","403","95733","","","","","","","","","","","","","","","","","","","","","","","","","","","","","","","","","","","","","","","","","","","","","","","","","","","",""
"","iti_localizer","","html-keyboard-response","247","406972","0.0-2.0-84.0-1.0","32","68112","female","null","","","","null","","82","","","406659","1","","","","","","300","94700","313","96136","300","","","","","","","","","","","","","","","","","","","","","","","","","","","","","","","","","","","","","","","","","","","","","","","","","","",""
"","localizer","","html-keyboard-response","248","407380","0.0-2.0-85.0-0.0","32","68112","female","277","","","","68","0","83","","Stimuli/Experimental_stims/localizer/objects/mockup-graphics-U6ZMEefFGx8-unsplash.jpg","406972","1","objects","","0","0","1","400","95000","408","96449","","","","","","","","","","","","","","","","","","","","","","","","","","","","","","","","","","","","","","","","","","","","","","","","","","","",""
"","iti_localizer","","html-keyboard-response","249","407691","0.0-2.0-85.0-1.0","32","68112","female","null","","","","null","","83","","","407380","1","","","","","","300","95400","311","96857","300","","","","","","","","","","","","","","","","","","","","","","","","","","","","","","","","","","","","","","","","","","","","","","","","","","",""
