"success","ttype","start_time","trial_type","trial_index","time_elapsed","internal_node_id","age","PID","gender","rt","responses","view_history","repeat_instructions","key_press","response","index","stimulus_index","path","run","task","isi","is_odd_ball","no_response","acc","duration","onset","left_chosen","chosen_stimulus","unchosen_stimulus","chosen_category","unchosen_category","chosen_rating","unchosen_rating","chosen_path","unchosen_path","pair_id","practice","scramble_screen_time","scramble_instructed_side","stim_type","iti","block","left_stimulus","right_stimulus","left_category","right_category","left_path","right_path","left_rating","right_rating","response_ends_trial","trial_duration","scramble_acc","scramble_no_response","warning","stimulus_id","item_id","outcome","response_rt","deliberation_reward_tally","choice_type","gain_left","left_item_id","right_item_id","chosen_left","old_pair","pair_type","old_response","pair_acc","reward_type","outcome_response","outcome_rt","outcome_acc","category","choice","deliberated_stim","old_rating","new_rating"
"true","full_screen","d07022023hr0013","fullscreen","0","68640","0.0-0.0-0.0","12","77890","11","","","","","","","","","","","","","","","","","","","","","","","","","","","","","","","","","","","","","","","","","","","","","","","","","","","","","","","","","","","","","","","","","","","","",""
"","get_id","","survey-text","1","72104","0.0-0.0-1.0","12","77890","11","3457","{""Q0"":""12"",""Q1"":""11""}","","","","","","","","","","","","","","","","","","","","","","","","","","","","","","","","","","","","","","","","","","","","","","","","","","","","","","","","","","","","","","","","","","",""
"","ratings_instructions","","instructions","2","74419","0.0-1.0-0.0-0.0","12","77890","11","1760","","[{""page_index"":0,""viewing_time"":1445},{""page_index"":1,""viewing_time"":315}]","","","","","","","","","","","","","","","","","","","","","","","","","","","","","","","","","","","","","","","","","","","","","","","","","","","","","","","","","","","","","","","","","",""
"","rating_comprehension_check","","survey-multi-choice","3","77140","0.0-1.0-0.0-1.0","12","77890","11","2713","{""Q0"":""True"",""Q1"":""Mouse""}","","0","","","","","","","","","","","","","","","","","","","","","","","","","","","","","","","","","","","","","","","","","","","","","","","","","","","","","","","","","","","","","","","","",""
"","","","html-keyboard-response","4","77756","0.0-1.0-1.0","12","77890","11","611","","","","68","","","","","","","","","","","","","","","","","","","","","","","","","","","","","","","","","","","","","","","","","","","","","","","","","","","","","","","","","","","","","","","",""
"","rating","","html-slider-response","5","78952","0.0-1.0-2.0","12","77890","11","1191","","","","","50","0","11","Stimuli/Experimental_stims/outdoor_scenes/stephen-leonardi-gyIRjKPXupE-unsplash.jpg","","","","","","","","","","","","","","","","","","","","","","","","","","","","","","","","","","","","","","","","","","","","","","","","","","","","","","","","","","","",""
"","rating","","html-slider-response","6","79114","0.0-1.0-3.0","12","77890","11","156","","","","","50","1","37","Stimuli/Experimental_stims/objects/alexander-andrews-VLGWE_SumrA-unsplash.jpg","","","","","","","","","","","","","","","","","","","","","","","","","","","","","","","","","","","","","","","","","","","","","","","","","","","","","","","","","","","",""
"","rating","","html-slider-response","7","79268","0.0-1.0-4.0","12","77890","11","148","","","","","50","2","43","Stimuli/Experimental_stims/objects/jonathan-greenaway-Y4hGgeiFn3s-unsplash.jpg","","","","","","","","","","","","","","","","","","","","","","","","","","","","","","","","","","","","","","","","","","","","","","","","","","","","","","","","","","","",""
"","rating","","html-slider-response","8","79478","0.0-1.0-5.0","12","77890","11","204","","","","","50","3","45","Stimuli/Experimental_stims/objects/leohoho-rngTKHXumy0-unsplash.jpg","","","","","","","","","","","","","","","","","","","","","","","","","","","","","","","","","","","","","","","","","","","","","","","","","","","","","","","","","","","",""
"","rating","","html-slider-response","9","79656","0.0-1.0-6.0","12","77890","11","171","","","","","50","4","1","Stimuli/Experimental_stims/outdoor_scenes/ashim-d-silva-S2Q5mdOrrVc-unsplash.jpg","","","","","","","","","","","","","","","","","","","","","","","","","","","","","","","","","","","","","","","","","","","","","","","","","","","","","","","","","","","",""
"","rating","","html-slider-response","10","79815","0.0-1.0-7.0","12","77890","11","152","","","","","50","5","4","Stimuli/Experimental_stims/outdoor_scenes/jarrett-kow-1ZOyYPOBn7I-unsplash.jpg","","","","","","","","","","","","","","","","","","","","","","","","","","","","","","","","","","","","","","","","","","","","","","","","","","","","","","","","","","","",""
"","rating","","html-slider-response","11","79970","0.0-1.0-8.0","12","77890","11","150","","","","","50","6","35","Stimuli/Experimental_stims/body_parts/wc-so-KH4AAPjb-tI-unsplash.jpg","","","","","","","","","","","","","","","","","","","","","","","","","","","","","","","","","","","","","","","","","","","","","","","","","","","","","","","","","","","",""
"","rating","","html-slider-response","12","80141","0.0-1.0-9.0","12","77890","11","167","","","","","50","7","24","Stimuli/Experimental_stims/body_parts/clay-banks-LjqARJaJotc-unsplash.jpg","","","","","","","","","","","","","","","","","","","","","","","","","","","","","","","","","","","","","","","","","","","","","","","","","","","","","","","","","","","",""
"","rating","","html-slider-response","13","80312","0.0-1.0-10.0","12","77890","11","165","","","","","50","8","6","Stimuli/Experimental_stims/outdoor_scenes/meng-ji-8BH_M-53CyA-unsplash.jpg","","","","","","","","","","","","","","","","","","","","","","","","","","","","","","","","","","","","","","","","","","","","","","","","","","","","","","","","","","","",""
"","rating","","html-slider-response","14","80490","0.0-1.0-11.0","12","77890","11","172","","","","","50","9","3","Stimuli/Experimental_stims/outdoor_scenes/henry-be-NLF6hTe4PAg-unsplash.jpg","","","","","","","","","","","","","","","","","","","","","","","","","","","","","","","","","","","","","","","","","","","","","","","","","","","","","","","","","","","",""
"","rating","","html-slider-response","15","80660","0.0-1.0-12.0","12","77890","11","164","","","","","50","10","5","Stimuli/Experimental_stims/outdoor_scenes/jeff-king-bJHWJeiHfHc-unsplash.jpg","","","","","","","","","","","","","","","","","","","","","","","","","","","","","","","","","","","","","","","","","","","","","","","","","","","","","","","","","","","",""
"","rating","","html-slider-response","16","80823","0.0-1.0-13.0","12","77890","11","159","","","","","50","11","25","Stimuli/Experimental_stims/body_parts/engin-akyurt-Q2rfH3GW39c-unsplash.jpg","","","","","","","","","","","","","","","","","","","","","","","","","","","","","","","","","","","","","","","","","","","","","","","","","","","","","","","","","","","",""
"","rating","","html-slider-response","17","80999","0.0-1.0-14.0","12","77890","11","171","","","","","50","12","21","Stimuli/Experimental_stims/faces/leilani-angel-K84vnnzxmTQ-unsplash.jpg","","","","","","","","","","","","","","","","","","","","","","","","","","","","","","","","","","","","","","","","","","","","","","","","","","","","","","","","","","","",""
"","rating","","html-slider-response","18","81178","0.0-1.0-15.0","12","77890","11","174","","","","","50","13","40","Stimuli/Experimental_stims/objects/fabian-blank-pElSkGRA2NU-unsplash.jpg","","","","","","","","","","","","","","","","","","","","","","","","","","","","","","","","","","","","","","","","","","","","","","","","","","","","","","","","","","","",""
"","rating","","html-slider-response","19","81355","0.0-1.0-16.0","12","77890","11","172","","","","","50","14","46","Stimuli/Experimental_stims/objects/mockup-graphics-PNsj6RiHAF4-unsplash.jpg","","","","","","","","","","","","","","","","","","","","","","","","","","","","","","","","","","","","","","","","","","","","","","","","","","","","","","","","","","","",""
"","rating","","html-slider-response","20","81542","0.0-1.0-17.0","12","77890","11","180","","","","","50","15","34","Stimuli/Experimental_stims/body_parts/wagner-santos-mBWMvIuVnso-unsplash.jpg","","","","","","","","","","","","","","","","","","","","","","","","","","","","","","","","","","","","","","","","","","","","","","","","","","","","","","","","","","","",""
"","rating","","html-slider-response","21","81712","0.0-1.0-18.0","12","77890","11","164","","","","","50","16","32","Stimuli/Experimental_stims/body_parts/towfiqu-barbhuiya-3AsiVDsZnHg-unsplash.jpg","","","","","","","","","","","","","","","","","","","","","","","","","","","","","","","","","","","","","","","","","","","","","","","","","","","","","","","","","","","",""
"","rating","","html-slider-response","22","81881","0.0-1.0-19.0","12","77890","11","164","","","","","50","17","18","Stimuli/Experimental_stims/faces/jessica-radanavong-mrYkTuAesKE-unsplash.jpg","","","","","","","","","","","","","","","","","","","","","","","","","","","","","","","","","","","","","","","","","","","","","","","","","","","","","","","","","","","",""
"","rating","","html-slider-response","23","82060","0.0-1.0-20.0","12","77890","11","173","","","","","50","18","22","Stimuli/Experimental_stims/faces/ravi-patel-VMGAbeeJTKo-unsplash.jpg","","","","","","","","","","","","","","","","","","","","","","","","","","","","","","","","","","","","","","","","","","","","","","","","","","","","","","","","","","","",""
"","rating","","html-slider-response","24","82246","0.0-1.0-21.0","12","77890","11","181","","","","","50","19","33","Stimuli/Experimental_stims/body_parts/tucker-good-36skLT5jZcc-unsplash.jpg","","","","","","","","","","","","","","","","","","","","","","","","","","","","","","","","","","","","","","","","","","","","","","","","","","","","","","","","","","","",""
"","rating","","html-slider-response","25","82424","0.0-1.0-22.0","12","77890","11","173","","","","","50","20","47","Stimuli/Experimental_stims/objects/ronaldo-arthur-vidal-Cdz_lvnl37k-unsplash.jpg","","","","","","","","","","","","","","","","","","","","","","","","","","","","","","","","","","","","","","","","","","","","","","","","","","","","","","","","","","","",""
"","rating","","html-slider-response","26","82608","0.0-1.0-23.0","12","77890","11","178","","","","","50","21","20","Stimuli/Experimental_stims/faces/justin-chen-J7Cf1Gch49E-unsplash.jpg","","","","","","","","","","","","","","","","","","","","","","","","","","","","","","","","","","","","","","","","","","","","","","","","","","","","","","","","","","","",""
"","rating","","html-slider-response","27","82794","0.0-1.0-24.0","12","77890","11","182","","","","","50","22","19","Stimuli/Experimental_stims/faces/joel-mott-LaK153ghdig-unsplash.jpg","","","","","","","","","","","","","","","","","","","","","","","","","","","","","","","","","","","","","","","","","","","","","","","","","","","","","","","","","","","",""
"","rating","","html-slider-response","28","82983","0.0-1.0-25.0","12","77890","11","183","","","","","50","23","42","Stimuli/Experimental_stims/objects/jess-bailey-nOeVi8DsN8U-unsplash.jpg","","","","","","","","","","","","","","","","","","","","","","","","","","","","","","","","","","","","","","","","","","","","","","","","","","","","","","","","","","","",""
"","rating","","html-slider-response","29","83152","0.0-1.0-26.0","12","77890","11","164","","","","","50","24","26","Stimuli/Experimental_stims/body_parts/engin-akyurt-x_3gyC42btc-unsplash.jpg","","","","","","","","","","","","","","","","","","","","","","","","","","","","","","","","","","","","","","","","","","","","","","","","","","","","","","","","","","","",""
"","rating","","html-slider-response","30","83330","0.0-1.0-27.0","12","77890","11","171","","","","","50","25","36","Stimuli/Experimental_stims/objects/alexander-andrews-JYGnB9gTCls-unsplash.jpg","","","","","","","","","","","","","","","","","","","","","","","","","","","","","","","","","","","","","","","","","","","","","","","","","","","","","","","","","","","",""
"","rating","","html-slider-response","31","83517","0.0-1.0-28.0","12","77890","11","181","","","","","50","26","41","Stimuli/Experimental_stims/objects/insung-yoon-w2JtIQQXoRU-unsplash.jpg","","","","","","","","","","","","","","","","","","","","","","","","","","","","","","","","","","","","","","","","","","","","","","","","","","","","","","","","","","","",""
"","rating","","html-slider-response","32","83711","0.0-1.0-29.0","12","77890","11","188","","","","","50","27","0","Stimuli/Experimental_stims/outdoor_scenes/aleksandra-boguslawska-MS7KD9Ti7FQ-unsplash.jpg","","","","","","","","","","","","","","","","","","","","","","","","","","","","","","","","","","","","","","","","","","","","","","","","","","","","","","","","","","","",""
"","rating","","html-slider-response","33","83897","0.0-1.0-30.0","12","77890","11","181","","","","","50","28","29","Stimuli/Experimental_stims/body_parts/manuel-schinner-ZwjFuJ7ebpk-unsplash.jpg","","","","","","","","","","","","","","","","","","","","","","","","","","","","","","","","","","","","","","","","","","","","","","","","","","","","","","","","","","","",""
"","rating","","html-slider-response","34","84073","0.0-1.0-31.0","12","77890","11","171","","","","","50","29","39","Stimuli/Experimental_stims/objects/charlesdeluvio-1-nx1QR5dTE-unsplash.jpg","","","","","","","","","","","","","","","","","","","","","","","","","","","","","","","","","","","","","","","","","","","","","","","","","","","","","","","","","","","",""
"","rating","","html-slider-response","35","84253","0.0-1.0-32.0","12","77890","11","174","","","","","50","30","27","Stimuli/Experimental_stims/body_parts/heike-mintel-i_Gns0ELnLw-unsplash.jpg","","","","","","","","","","","","","","","","","","","","","","","","","","","","","","","","","","","","","","","","","","","","","","","","","","","","","","","","","","","",""
"","rating","","html-slider-response","36","84440","0.0-1.0-33.0","12","77890","11","181","","","","","50","31","16","Stimuli/Experimental_stims/faces/freddy-kearney-o-ioeoATbIM-unsplash.jpg","","","","","","","","","","","","","","","","","","","","","","","","","","","","","","","","","","","","","","","","","","","","","","","","","","","","","","","","","","","",""
"","rating","","html-slider-response","37","84602","0.0-1.0-34.0","12","77890","11","156","","","","","50","32","8","Stimuli/Experimental_stims/outdoor_scenes/samsommer-vddccTqwal8-unsplash.jpg","","","","","","","","","","","","","","","","","","","","","","","","","","","","","","","","","","","","","","","","","","","","","","","","","","","","","","","","","","","",""
"","rating","","html-slider-response","38","84779","0.0-1.0-35.0","12","77890","11","171","","","","","50","33","38","Stimuli/Experimental_stims/objects/art-lasovsky-8XddFc6NkBY-unsplash.jpg","","","","","","","","","","","","","","","","","","","","","","","","","","","","","","","","","","","","","","","","","","","","","","","","","","","","","","","","","","","",""
"","rating","","html-slider-response","39","84965","0.0-1.0-36.0","12","77890","11","181","","","","","50","34","30","Stimuli/Experimental_stims/body_parts/mika-korhonen-Xodzxosar18-unsplash.jpg","","","","","","","","","","","","","","","","","","","","","","","","","","","","","","","","","","","","","","","","","","","","","","","","","","","","","","","","","","","",""
"","rating","","html-slider-response","40","85160","0.0-1.0-37.0","12","77890","11","190","","","","","50","35","23","Stimuli/Experimental_stims/faces/rikonavt-HQjfrvdTfak-unsplash.jpg","","","","","","","","","","","","","","","","","","","","","","","","","","","","","","","","","","","","","","","","","","","","","","","","","","","","","","","","","","","",""
"","rating","","html-slider-response","41","85346","0.0-1.0-38.0","12","77890","11","180","","","","","50","36","10","Stimuli/Experimental_stims/outdoor_scenes/shannon-kunkle-dM8INmkyDas-unsplash.jpg","","","","","","","","","","","","","","","","","","","","","","","","","","","","","","","","","","","","","","","","","","","","","","","","","","","","","","","","","","","",""
"","rating","","html-slider-response","42","85525","0.0-1.0-39.0","12","77890","11","173","","","","","50","37","12","Stimuli/Experimental_stims/faces/aiony-haust-jmATI5Q_YgY-unsplash.jpg","","","","","","","","","","","","","","","","","","","","","","","","","","","","","","","","","","","","","","","","","","","","","","","","","","","","","","","","","","","",""
"","rating","","html-slider-response","43","85710","0.0-1.0-40.0","12","77890","11","179","","","","","50","38","31","Stimuli/Experimental_stims/body_parts/sincerely-media-VN6DbKajo5s-unsplash.jpg","","","","","","","","","","","","","","","","","","","","","","","","","","","","","","","","","","","","","","","","","","","","","","","","","","","","","","","","","","","",""
"","rating","","html-slider-response","44","85887","0.0-1.0-41.0","12","77890","11","172","","","","","50","39","7","Stimuli/Experimental_stims/outdoor_scenes/petr-vysohlid-9fqwGqGLUxc-unsplash.jpg","","","","","","","","","","","","","","","","","","","","","","","","","","","","","","","","","","","","","","","","","","","","","","","","","","","","","","","","","","","",""
"","rating","","html-slider-response","45","86063","0.0-1.0-42.0","12","77890","11","171","","","","","50","40","15","Stimuli/Experimental_stims/faces/erik-lucatero-d2MSDujJl2g-unsplash.jpg","","","","","","","","","","","","","","","","","","","","","","","","","","","","","","","","","","","","","","","","","","","","","","","","","","","","","","","","","","","",""
"","rating","","html-slider-response","46","86251","0.0-1.0-43.0","12","77890","11","183","","","","","50","41","28","Stimuli/Experimental_stims/body_parts/ira-vishnevskaya-8DQAvdCby1I-unsplash.jpg","","","","","","","","","","","","","","","","","","","","","","","","","","","","","","","","","","","","","","","","","","","","","","","","","","","","","","","","","","","",""
"","rating","","html-slider-response","47","86430","0.0-1.0-44.0","12","77890","11","174","","","","","50","42","9","Stimuli/Experimental_stims/outdoor_scenes/sergey-pesterev-y-b_FOmJXdg-unsplash.jpg","","","","","","","","","","","","","","","","","","","","","","","","","","","","","","","","","","","","","","","","","","","","","","","","","","","","","","","","","","","",""
"","rating","","html-slider-response","48","86608","0.0-1.0-45.0","12","77890","11","172","","","","","50","43","2","Stimuli/Experimental_stims/outdoor_scenes/bruno-van-der-kraan-qez8mNJ3ilU-unsplash.jpg","","","","","","","","","","","","","","","","","","","","","","","","","","","","","","","","","","","","","","","","","","","","","","","","","","","","","","","","","","","",""
"","rating","","html-slider-response","49","86772","0.0-1.0-46.0","12","77890","11","160","","","","","50","44","17","Stimuli/Experimental_stims/faces/good-faces-xmSWVeGEnJw-unsplash.jpg","","","","","","","","","","","","","","","","","","","","","","","","","","","","","","","","","","","","","","","","","","","","","","","","","","","","","","","","","","","",""
"","rating","","html-slider-response","50","86942","0.0-1.0-47.0","12","77890","11","166","","","","","50","45","44","Stimuli/Experimental_stims/objects/kuiye-chen-NuOGFo4PudE-unsplash.jpg","","","","","","","","","","","","","","","","","","","","","","","","","","","","","","","","","","","","","","","","","","","","","","","","","","","","","","","","","","","",""
"","rating","","html-slider-response","51","87134","0.0-1.0-48.0","12","77890","11","186","","","","","50","46","13","Stimuli/Experimental_stims/faces/daniel-rigdon-dXmXKPP2L4E-unsplash.jpg","","","","","","","","","","","","","","","","","","","","","","","","","","","","","","","","","","","","","","","","","","","","","","","","","","","","","","","","","","","",""
"","rating","","html-slider-response","52","87329","0.0-1.0-49.0","12","77890","11","189","","","","","50","47","14","Stimuli/Experimental_stims/faces/david-siglin-UuW4psOb388-unsplash.jpg","","","","","","","","","","","","","","","","","","","","","","","","","","","","","","","","","","","","","","","","","","","","","","","","","","","","","","","","","","","",""
"","localizer_instructions","","instructions","53","88995","0.0-2.0-0.0-0.0","12","77890","11","1633","","[{""page_index"":0,""viewing_time"":1188},{""page_index"":1,""viewing_time"":219},{""page_index"":2,""viewing_time"":226}]","","","","","","","","","","","","","","","","","","","","","","","","","","","","","","","","","","","","","","","","","","","","","","","","","","","","","","","","","","","","","","","","","",""
"","localizer_comprehension_check","","survey-multi-choice","54","93844","0.0-2.0-0.0-1.0","12","77890","11","4841","{""Q0"":""True"",""Q1"":""K"",""Q2"":""D""}","","0","","","","","","","","","","","","","","","","","","","","","","","","","","","","","","","","","","","","","","","","","","","","","","","","","","","","","","","","","","","","","","","","",""
"","","","html-keyboard-response","55","94917","0.0-2.0-1.0","12","77890","11","1068","","","","68","","","","","","","","","","","","","","","","","","","","","","","","","","","","","","","","","","","","","","","","","","","","","","","","","","","","","","","","","","","","","","","",""
"","localizer","","html-keyboard-response","56","95324","0.0-2.0-2.0-0.0","12","77890","11","NaN","","","","null","NaN","0","","Stimuli/Practice_stims/Localizer/annie-spratt-g9KFpAfQ5bc-unsplash.jpg","0","NaN","","0","1","0","0.4","0","","","","","","","","","","","","","","","","","","","","","","","","","","","","","","","","","","","","","","","","","","","","","","","","","","","",""
"","iti_localizer","","html-keyboard-response","57","95637","0.0-2.0-2.0-1.0","12","77890","11","null","","","","null","","0","","","0","","","","","","0.3","0.4","","","","","","","","","","","","","","","","","","","","","","","","","","","","","","","","","","","","","","","","","","","","","","","","","","","",""
"","localizer","","html-keyboard-response","58","96047","0.0-2.0-3.0-0.0","12","77890","11","NaN","","","","null","NaN","1","","Stimuli/Practice_stims/Localizer/becca-tapert-sY5RjMB1KkE-unsplash.jpg","0","NaN","","0","1","0","0.4","0.7","","","","","","","","","","","","","","","","","","","","","","","","","","","","","","","","","","","","","","","","","","","","","","","","","","","",""
"","iti_localizer","","html-keyboard-response","59","96356","0.0-2.0-3.0-1.0","12","77890","11","null","","","","null","","1","","","0","","","","","","0.3","1.1","","","","","","","","","","","","","","","","","","","","","","","","","","","","","","","","","","","","","","","","","","","","","","","","","","","",""
"","localizer","","html-keyboard-response","60","96763","0.0-2.0-4.0-0.0","12","77890","11","NaN","","","","null","NaN","2","","Stimuli/Practice_stims/Localizer/charl-durand-bsfXvI25iNg-unsplash.jpg","0","NaN","","1","1","0","0.4","1.4000000000000001","","","","","","","","","","","","","","","","","","","","","","","","","","","","","","","","","","","","","","","","","","","","","","","","","","","",""
"","iti_localizer","","html-keyboard-response","61","97075","0.0-2.0-4.0-1.0","12","77890","11","null","","","","null","","2","","","0","","","","","","0.3","1.8000000000000003","","","","","","","","","","","","","","","","","","","","","","","","","","","","","","","","","","","","","","","","","","","","","","","","","","","",""
"","localizer","","html-keyboard-response","62","97489","0.0-2.0-5.0-0.0","12","77890","11","NaN","","","","null","NaN","3","","Stimuli/Practice_stims/Localizer/nizar-albusaidy-B2r2SWAf5CE-unsplash.jpg","0","NaN","","0","1","0","0.4","2.1","","","","","","","","","","","","","","","","","","","","","","","","","","","","","","","","","","","","","","","","","","","","","","","","","","","",""
"","iti_localizer","","html-keyboard-response","63","97795","0.0-2.0-5.0-1.0","12","77890","11","null","","","","null","","3","","","0","","","","","","0.3","2.5","","","","","","","","","","","","","","","","","","","","","","","","","","","","","","","","","","","","","","","","","","","","","","","","","","","",""
"","localizer","","html-keyboard-response","64","98208","0.0-2.0-6.0-0.0","12","77890","11","NaN","","","","null","NaN","4","","Stimuli/Practice_stims/Localizer/randy-fath-epf1tdtIIkM-unsplash.jpg","0","NaN","","1","1","0","0.4","2.8","","","","","","","","","","","","","","","","","","","","","","","","","","","","","","","","","","","","","","","","","","","","","","","","","","","",""
"","iti_localizer","","html-keyboard-response","65","98516","0.0-2.0-6.0-1.0","12","77890","11","null","","","","null","","4","","","0","","","","","","0.3","3.1999999999999997","","","","","","","","","","","","","","","","","","","","","","","","","","","","","","","","","","","","","","","","","","","","","","","","","","","",""
"","localizer","","html-keyboard-response","66","98929","0.0-2.0-7.0-0.0","12","77890","11","NaN","","","","null","NaN","5","","Stimuli/Practice_stims/Localizer/yassine-khalfalli-adsQ9d_Cx0c-unsplash.jpg","0","NaN","","0","1","0","0.4","3.4999999999999996","","","","","","","","","","","","","","","","","","","","","","","","","","","","","","","","","","","","","","","","","","","","","","","","","","","",""
"","iti_localizer","","html-keyboard-response","67","99239","0.0-2.0-7.0-1.0","12","77890","11","null","","","","null","","5","","","0","","","","","","0.3","3.8999999999999995","","","","","","","","","","","","","","","","","","","","","","","","","","","","","","","","","","","","","","","","","","","","","","","","","","","",""
"","practice_over","","html-keyboard-response","68","100075","0.0-2.0-7.0-2.0-0.0","12","77890","11","831","","","","68","","","","","","","","","","","","","","","","","","","","","","","","","","","","","","","","","","","","","","","","","","","","","","","","","","","","","","","","","","","","","","","",""
"","start_run","","html-keyboard-response","69","101099","0.0-2.0-7.0-2.0-1.0","12","77890","11","1020","","","","84","","","","","","","","","","","","","","","","","","","","","","","","","","","","","","","","","","","","","","","","","","","","","","","","","","","","","","","","","","","","","","","",""
"","localizer","","html-keyboard-response","70","101509","0.0-2.0-8.0-0.0","12","77890","11","NaN","","","","null","NaN","6","","Stimuli/Experimental_stims/localizer/outdoor_scenes/erol-ahmed-d3pTF3r_hwY-unsplash.jpg","1","outdoor_scenes","","0","1","0","0.4","0","","","","","","","","","","","","","","","","","","","","","","","","","","","","","","","","","","","","","","","","","","","","","","","","","","","",""
"","iti_localizer","","html-keyboard-response","71","101823","0.0-2.0-8.0-1.0","12","77890","11","null","","","","null","","6","","","1","","","","","","0.3","0.4","","","","","","","","","","","","","","","","","","","","","","","","","","","","","","","","","","","","","","","","","","","","","","","","","","","",""
"","localizer","","html-keyboard-response","72","102238","0.0-2.0-9.0-0.0","12","77890","11","NaN","","","","null","NaN","7","","Stimuli/Experimental_stims/localizer/outdoor_scenes/ricardo-gomez-angel-dTSaC-S-7fs-unsplash.jpg","1","outdoor_scenes","","1","1","0","0.4","0.7","","","","","","","","","","","","","","","","","","","","","","","","","","","","","","","","","","","","","","","","","","","","","","","","","","","",""
"","iti_localizer","","html-keyboard-response","73","102552","0.0-2.0-9.0-1.0","12","77890","11","null","","","","null","","7","","","1","","","","","","0.3","1.1","","","","","","","","","","","","","","","","","","","","","","","","","","","","","","","","","","","","","","","","","","","","","","","","","","","",""
"","localizer","","html-keyboard-response","74","102969","0.0-2.0-10.0-0.0","12","77890","11","NaN","","","","null","NaN","8","","Stimuli/Experimental_stims/localizer/outdoor_scenes/kenneth-thewissen-D76DklsG-5U-unsplash.jpg","1","outdoor_scenes","","0","1","0","0.4","1.4000000000000001","","","","","","","","","","","","","","","","","","","","","","","","","","","","","","","","","","","","","","","","","","","","","","","","","","","",""
"","iti_localizer","","html-keyboard-response","75","103276","0.0-2.0-10.0-1.0","12","77890","11","null","","","","null","","8","","","1","","","","","","0.3","1.8000000000000003","","","","","","","","","","","","","","","","","","","","","","","","","","","","","","","","","","","","","","","","","","","","","","","","","","","",""
"","localizer","","html-keyboard-response","76","103689","0.0-2.0-11.0-0.0","12","77890","11","NaN","","","","null","NaN","9","","Stimuli/Experimental_stims/localizer/outdoor_scenes/quentin-zwzeorQPepo-unsplash.jpg","1","outdoor_scenes","","0","1","0","0.4","2.1","","","","","","","","","","","","","","","","","","","","","","","","","","","","","","","","","","","","","","","","","","","","","","","","","","","",""
"","iti_localizer","","html-keyboard-response","77","104001","0.0-2.0-11.0-1.0","12","77890","11","null","","","","null","","9","","","1","","","","","","0.3","2.5","","","","","","","","","","","","","","","","","","","","","","","","","","","","","","","","","","","","","","","","","","","","","","","","","","","",""
"","localizer","","html-keyboard-response","78","104416","0.0-2.0-12.0-0.0","12","77890","11","NaN","","","","null","NaN","10","","Stimuli/Experimental_stims/localizer/outdoor_scenes/daniel-roe-lpjb_UMOyx8-unsplash.jpg","1","outdoor_scenes","","0","1","0","0.4","2.8","","","","","","","","","","","","","","","","","","","","","","","","","","","","","","","","","","","","","","","","","","","","","","","","","","","",""
"","iti_localizer","","html-keyboard-response","79","104724","0.0-2.0-12.0-1.0","12","77890","11","null","","","","null","","10","","","1","","","","","","0.3","3.1999999999999997","","","","","","","","","","","","","","","","","","","","","","","","","","","","","","","","","","","","","","","","","","","","","","","","","","","",""
"","localizer","","html-keyboard-response","80","105137","0.0-2.0-13.0-0.0","12","77890","11","NaN","","","","null","NaN","11","","Stimuli/Experimental_stims/localizer/outdoor_scenes/adam-kool-ndN00KmbJ1c-unsplash.jpg","1","outdoor_scenes","","0","1","0","0.4","3.4999999999999996","","","","","","","","","","","","","","","","","","","","","","","","","","","","","","","","","","","","","","","","","","","","","","","","","","","",""
"","iti_localizer","","html-keyboard-response","81","105444","0.0-2.0-13.0-1.0","12","77890","11","null","","","","null","","11","","","1","","","","","","0.3","3.8999999999999995","","","","","","","","","","","","","","","","","","","","","","","","","","","","","","","","","","","","","","","","","","","","","","","","","","","",""
"","localizer","","html-keyboard-response","82","105851","0.0-2.0-14.0-0.0","12","77890","11","NaN","","","","null","NaN","12","","Stimuli/Experimental_stims/localizer/outdoor_scenes/samuel-ferrara-IEHPDNk2-8w-unsplash.jpg","1","outdoor_scenes","","0","1","0","0.4","4.199999999999999","","","","","","","","","","","","","","","","","","","","","","","","","","","","","","","","","","","","","","","","","","","","","","","","","","","",""
"","iti_localizer","","html-keyboard-response","83","106164","0.0-2.0-14.0-1.0","12","77890","11","null","","","","null","","12","","","1","","","","","","0.3","4.6","","","","","","","","","","","","","","","","","","","","","","","","","","","","","","","","","","","","","","","","","","","","","","","","","","","",""
"","localizer","","html-keyboard-response","84","106575","0.0-2.0-15.0-0.0","12","77890","11","NaN","","","","null","NaN","13","","Stimuli/Experimental_stims/localizer/outdoor_scenes/damian-denis-D8R_txR_0PE-unsplash.jpg","1","outdoor_scenes","","0","1","0","0.4","4.8999999999999995","","","","","","","","","","","","","","","","","","","","","","","","","","","","","","","","","","","","","","","","","","","","","","","","","","","",""
"","iti_localizer","","html-keyboard-response","85","106883","0.0-2.0-15.0-1.0","12","77890","11","null","","","","null","","13","","","1","","","","","","0.3","5.3","","","","","","","","","","","","","","","","","","","","","","","","","","","","","","","","","","","","","","","","","","","","","","","","","","","",""
"","localizer","","html-keyboard-response","86","107292","0.0-2.0-16.0-0.0","12","77890","11","NaN","","","","null","NaN","14","","Stimuli/Experimental_stims/localizer/outdoor_scenes/john-fowler-aaIN3y2zcMQ-unsplash.jpg","1","outdoor_scenes","","0","1","0","0.4","5.6","","","","","","","","","","","","","","","","","","","","","","","","","","","","","","","","","","","","","","","","","","","","","","","","","","","",""
"","iti_localizer","","html-keyboard-response","87","107599","0.0-2.0-16.0-1.0","12","77890","11","null","","","","null","","14","","","1","","","","","","0.3","6","","","","","","","","","","","","","","","","","","","","","","","","","","","","","","","","","","","","","","","","","","","","","","","","","","","",""
"","localizer","","html-keyboard-response","88","108008","0.0-2.0-17.0-0.0","12","77890","11","NaN","","","","null","NaN","15","","Stimuli/Experimental_stims/localizer/outdoor_scenes/simon-berger-twukN12EN7c-unsplash.jpg","1","outdoor_scenes","","0","1","0","0.4","6.3","","","","","","","","","","","","","","","","","","","","","","","","","","","","","","","","","","","","","","","","","","","","","","","","","","","",""
"","iti_localizer","","html-keyboard-response","89","108315","0.0-2.0-17.0-1.0","12","77890","11","null","","","","null","","15","","","1","","","","","","0.3","6.7","","","","","","","","","","","","","","","","","","","","","","","","","","","","","","","","","","","","","","","","","","","","","","","","","","","",""
"","localizer","","html-keyboard-response","90","108729","0.0-2.0-18.0-0.0","12","77890","11","NaN","","","","null","NaN","16","","Stimuli/Experimental_stims/localizer/outdoor_scenes/federico-beccari-kRnkqSKZODQ-unsplash.jpg","1","outdoor_scenes","","0","1","0","0.4","7","","","","","","","","","","","","","","","","","","","","","","","","","","","","","","","","","","","","","","","","","","","","","","","","","","","",""
"","iti_localizer","","html-keyboard-response","91","109039","0.0-2.0-18.0-1.0","12","77890","11","null","","","","null","","16","","","1","","","","","","0.3","7.4","","","","","","","","","","","","","","","","","","","","","","","","","","","","","","","","","","","","","","","","","","","","","","","","","","","",""
"","localizer","","html-keyboard-response","92","109457","0.0-2.0-19.0-0.0","12","77890","11","NaN","","","","null","NaN","17","","Stimuli/Experimental_stims/localizer/outdoor_scenes/luca-bravo-VowIFDxogG4-unsplash.jpg","1","outdoor_scenes","","0","1","0","0.4","7.7","","","","","","","","","","","","","","","","","","","","","","","","","","","","","","","","","","","","","","","","","","","","","","","","","","","",""
"","iti_localizer","","html-keyboard-response","93","109763","0.0-2.0-19.0-1.0","12","77890","11","null","","","","null","","17","","","1","","","","","","0.3","8.1","","","","","","","","","","","","","","","","","","","","","","","","","","","","","","","","","","","","","","","","","","","","","","","","","","","",""
"","localizer","","html-keyboard-response","94","110175","0.0-2.0-20.0-0.0","12","77890","11","NaN","","","","null","NaN","18","","Stimuli/Experimental_stims/localizer/outdoor_scenes/ales-krivec-hsX9KpLLsIE-unsplash.jpg","1","outdoor_scenes","","0","1","0","0.4","8.4","","","","","","","","","","","","","","","","","","","","","","","","","","","","","","","","","","","","","","","","","","","","","","","","","","","",""
"","iti_localizer","","html-keyboard-response","95","110489","0.0-2.0-20.0-1.0","12","77890","11","null","","","","null","","18","","","1","","","","","","0.3","8.8","","","","","","","","","","","","","","","","","","","","","","","","","","","","","","","","","","","","","","","","","","","","","","","","","","","",""
"","localizer","","html-keyboard-response","96","110903","0.0-2.0-21.0-0.0","12","77890","11","NaN","","","","null","NaN","19","","Stimuli/Experimental_stims/localizer/outdoor_scenes/kace-rodriguez-p3OzJuT_Dks-unsplash.jpg","1","outdoor_scenes","","0","1","0","0.4","9.100000000000001","","","","","","","","","","","","","","","","","","","","","","","","","","","","","","","","","","","","","","","","","","","","","","","","","","","",""
"","iti_localizer","","html-keyboard-response","97","111216","0.0-2.0-21.0-1.0","12","77890","11","null","","","","null","","19","","","1","","","","","","0.3","9.500000000000002","","","","","","","","","","","","","","","","","","","","","","","","","","","","","","","","","","","","","","","","","","","","","","","","","","","",""
"","localizer","","html-keyboard-response","98","111627","0.0-2.0-22.0-0.0","12","77890","11","NaN","","","","null","NaN","20","","Stimuli/Experimental_stims/localizer/outdoor_scenes/benjamin-davies-Zm2n2O7Fph4-unsplash.jpg","1","outdoor_scenes","","0","1","0","0.4","9.800000000000002","","","","","","","","","","","","","","","","","","","","","","","","","","","","","","","","","","","","","","","","","","","","","","","","","","","",""
"","iti_localizer","","html-keyboard-response","99","111939","0.0-2.0-22.0-1.0","12","77890","11","null","","","","null","","20","","","1","","","","","","0.3","10.200000000000003","","","","","","","","","","","","","","","","","","","","","","","","","","","","","","","","","","","","","","","","","","","","","","","","","","","",""
"","localizer","","html-keyboard-response","100","112352","0.0-2.0-23.0-0.0","12","77890","11","NaN","","","","null","NaN","21","","Stimuli/Experimental_stims/localizer/outdoor_scenes/tim-swaan-eOpewngf68w-unsplash (1).jpg","1","outdoor_scenes","","0","1","0","0.4","10.500000000000004","","","","","","","","","","","","","","","","","","","","","","","","","","","","","","","","","","","","","","","","","","","","","","","","","","","",""
"","iti_localizer","","html-keyboard-response","101","112660","0.0-2.0-23.0-1.0","12","77890","11","null","","","","null","","21","","","1","","","","","","0.3","10.900000000000004","","","","","","","","","","","","","","","","","","","","","","","","","","","","","","","","","","","","","","","","","","","","","","","","","","","",""
"","localizer","","html-keyboard-response","102","113070","0.0-2.0-24.0-0.0","12","77890","11","NaN","","","","null","NaN","22","","Stimuli/Experimental_stims/localizer/outdoor_scenes/gabriel-garcia-marengo-ht9aLtovtSo-unsplash.jpg","1","outdoor_scenes","","0","1","0","0.4","11.200000000000005","","","","","","","","","","","","","","","","","","","","","","","","","","","","","","","","","","","","","","","","","","","","","","","","","","","",""
"","iti_localizer","","html-keyboard-response","103","113385","0.0-2.0-24.0-1.0","12","77890","11","null","","","","null","","22","","","1","","","","","","0.3","11.600000000000005","","","","","","","","","","","","","","","","","","","","","","","","","","","","","","","","","","","","","","","","","","","","","","","","","","","",""
"","localizer","","html-keyboard-response","104","113801","0.0-2.0-25.0-0.0","12","77890","11","NaN","","","","null","NaN","23","","Stimuli/Experimental_stims/localizer/outdoor_scenes/chang-qing-2YQoKbyGvDc-unsplash.jpg","1","outdoor_scenes","","1","1","0","0.4","11.900000000000006","","","","","","","","","","","","","","","","","","","","","","","","","","","","","","","","","","","","","","","","","","","","","","","","","","","",""
"","iti_localizer","","html-keyboard-response","105","114107","0.0-2.0-25.0-1.0","12","77890","11","null","","","","null","","23","","","1","","","","","","0.3","12.300000000000006","","","","","","","","","","","","","","","","","","","","","","","","","","","","","","","","","","","","","","","","","","","","","","","","","","","",""
"","localizer","","html-keyboard-response","106","114515","0.0-2.0-26.0-0.0","12","77890","11","NaN","","","","null","NaN","24","","Stimuli/Experimental_stims/localizer/outdoor_scenes/neom-THlO6Mkf5uI-unsplash.jpg","1","outdoor_scenes","","0","1","0","0.4","12.600000000000007","","","","","","","","","","","","","","","","","","","","","","","","","","","","","","","","","","","","","","","","","","","","","","","","","","","",""
"","iti_localizer","","html-keyboard-response","107","114832","0.0-2.0-26.0-1.0","12","77890","11","null","","","","null","","24","","","1","","","","","","0.3","13.000000000000007","","","","","","","","","","","","","","","","","","","","","","","","","","","","","","","","","","","","","","","","","","","","","","","","","","","",""
"","localizer","","html-keyboard-response","108","115239","0.0-2.0-27.0-0.0","12","77890","11","NaN","","","","null","NaN","25","","Stimuli/Experimental_stims/localizer/outdoor_scenes/kalen-emsley-Bkci_8qcdvQ-unsplash.jpg","1","outdoor_scenes","","0","1","0","0.4","13.300000000000008","","","","","","","","","","","","","","","","","","","","","","","","","","","","","","","","","","","","","","","","","","","","","","","","","","","",""
"","iti_localizer","","html-keyboard-response","109","115551","0.0-2.0-27.0-1.0","12","77890","11","null","","","","null","","25","","","1","","","","","","14","13.700000000000008","","","","","","","","","","","","","","","","","","","","","","","","","","","","","","","","","","","","","","","","","","","","","","","","","","","",""
"","localizer","","html-keyboard-response","110","115965","0.0-2.0-28.0-0.0","12","77890","11","NaN","","","","null","NaN","26","","Stimuli/Experimental_stims/localizer/faces/ayo-ogunseinde-sibVwORYqs0-unsplash.jpg","1","faces","","0","1","0","0.4","27.70000000000001","","","","","","","","","","","","","","","","","","","","","","","","","","","","","","","","","","","","","","","","","","","","","","","","","","","",""
"","iti_localizer","","html-keyboard-response","111","116275","0.0-2.0-28.0-1.0","12","77890","11","null","","","","null","","26","","","1","","","","","","0.3","28.10000000000001","","","","","","","","","","","","","","","","","","","","","","","","","","","","","","","","","","","","","","","","","","","","","","","","","","","",""
"","localizer","","html-keyboard-response","112","116689","0.0-2.0-29.0-0.0","12","77890","11","NaN","","","","null","NaN","27","","Stimuli/Experimental_stims/localizer/faces/nick-karvounis-JyO_szjGvUw-unsplash.jpg","1","faces","","0","1","0","0.4","28.40000000000001","","","","","","","","","","","","","","","","","","","","","","","","","","","","","","","","","","","","","","","","","","","","","","","","","","","",""
"","iti_localizer","","html-keyboard-response","113","117000","0.0-2.0-29.0-1.0","12","77890","11","null","","","","null","","27","","","1","","","","","","0.3","28.800000000000008","","","","","","","","","","","","","","","","","","","","","","","","","","","","","","","","","","","","","","","","","","","","","","","","","","","",""
"","localizer","","html-keyboard-response","114","117414","0.0-2.0-30.0-0.0","12","77890","11","NaN","","","","null","NaN","28","","Stimuli/Experimental_stims/localizer/faces/jake-nackos-IF9TK5Uy-KI-unsplash.jpg","1","faces","","1","1","0","0.4","29.10000000000001","","","","","","","","","","","","","","","","","","","","","","","","","","","","","","","","","","","","","","","","","","","","","","","","","","","",""
"","iti_localizer","","html-keyboard-response","115","117723","0.0-2.0-30.0-1.0","12","77890","11","null","","","","null","","28","","","1","","","","","","0.3","29.500000000000007","","","","","","","","","","","","","","","","","","","","","","","","","","","","","","","","","","","","","","","","","","","","","","","","","","","",""
"","localizer","","html-keyboard-response","116","118131","0.0-2.0-31.0-0.0","12","77890","11","NaN","","","","null","NaN","29","","Stimuli/Experimental_stims/localizer/faces/rafaella-mendes-diniz-et_78QkMMQs-unsplash.jpg","1","faces","","0","1","0","0.4","29.800000000000008","","","","","","","","","","","","","","","","","","","","","","","","","","","","","","","","","","","","","","","","","","","","","","","","","","","",""
"","iti_localizer","","html-keyboard-response","117","118443","0.0-2.0-31.0-1.0","12","77890","11","null","","","","null","","29","","","1","","","","","","0.3","30.200000000000006","","","","","","","","","","","","","","","","","","","","","","","","","","","","","","","","","","","","","","","","","","","","","","","","","","","",""
"","localizer","","html-keyboard-response","118","118849","0.0-2.0-32.0-0.0","12","77890","11","NaN","","","","null","NaN","30","","Stimuli/Experimental_stims/localizer/faces/ben-scott-tWb7IsL9CnY-unsplash.jpg","1","faces","","0","1","0","0.4","30.500000000000007","","","","","","","","","","","","","","","","","","","","","","","","","","","","","","","","","","","","","","","","","","","","","","","","","","","",""
"","iti_localizer","","html-keyboard-response","119","119155","0.0-2.0-32.0-1.0","12","77890","11","null","","","","null","","30","","","1","","","","","","0.3","30.900000000000006","","","","","","","","","","","","","","","","","","","","","","","","","","","","","","","","","","","","","","","","","","","","","","","","","","","",""
"","localizer","","html-keyboard-response","120","119566","0.0-2.0-33.0-0.0","12","77890","11","NaN","","","","null","NaN","31","","Stimuli/Experimental_stims/localizer/faces/aleksandar-popovski-Jy4ELSGPHTc-unsplash.jpg","1","faces","","0","1","0","0.4","31.200000000000006","","","","","","","","","","","","","","","","","","","","","","","","","","","","","","","","","","","","","","","","","","","","","","","","","","","",""
"","iti_localizer","","html-keyboard-response","121","119879","0.0-2.0-33.0-1.0","12","77890","11","null","","","","null","","31","","","1","","","","","","0.3","31.600000000000005","","","","","","","","","","","","","","","","","","","","","","","","","","","","","","","","","","","","","","","","","","","","","","","","","","","",""
"","localizer","","html-keyboard-response","122","120290","0.0-2.0-34.0-0.0","12","77890","11","NaN","","","","null","NaN","32","","Stimuli/Experimental_stims/localizer/faces/matheus-ferrero-W7b3eDUb_2I-unsplash.jpg","1","faces","","0","1","0","0.4","31.900000000000006","","","","","","","","","","","","","","","","","","","","","","","","","","","","","","","","","","","","","","","","","","","","","","","","","","","",""
"","iti_localizer","","html-keyboard-response","123","120606","0.0-2.0-34.0-1.0","12","77890","11","null","","","","null","","32","","","1","","","","","","0.3","32.300000000000004","","","","","","","","","","","","","","","","","","","","","","","","","","","","","","","","","","","","","","","","","","","","","","","","","","","",""
"","localizer","","html-keyboard-response","124","121019","0.0-2.0-35.0-0.0","12","77890","11","NaN","","","","null","NaN","33","","Stimuli/Experimental_stims/localizer/faces/toa-heftiba-O3ymvT7Wf9U-unsplash.jpg","1","faces","","0","1","0","0.4","32.6","","","","","","","","","","","","","","","","","","","","","","","","","","","","","","","","","","","","","","","","","","","","","","","","","","","",""
"","iti_localizer","","html-keyboard-response","125","121336","0.0-2.0-35.0-1.0","12","77890","11","null","","","","null","","33","","","1","","","","","","0.3","33","","","","","","","","","","","","","","","","","","","","","","","","","","","","","","","","","","","","","","","","","","","","","","","","","","","",""
"","localizer","","html-keyboard-response","126","121747","0.0-2.0-36.0-0.0","12","77890","11","NaN","","","","null","NaN","34","","Stimuli/Experimental_stims/localizer/faces/vince-fleming-j3lf-Jn6deo-unsplash.jpg","1","faces","","0","1","0","0.4","33.3","","","","","","","","","","","","","","","","","","","","","","","","","","","","","","","","","","","","","","","","","","","","","","","","","","","",""
"","iti_localizer","","html-keyboard-response","127","122061","0.0-2.0-36.0-1.0","12","77890","11","null","","","","null","","34","","","1","","","","","","0.3","33.699999999999996","","","","","","","","","","","","","","","","","","","","","","","","","","","","","","","","","","","","","","","","","","","","","","","","","","","",""
"","localizer","","html-keyboard-response","128","122476","0.0-2.0-37.0-0.0","12","77890","11","NaN","","","","null","NaN","35","","Stimuli/Experimental_stims/localizer/faces/jeffery-erhunse-vp9mRauo68c-unsplash.jpg","1","faces","","0","1","0","0.4","33.99999999999999","","","","","","","","","","","","","","","","","","","","","","","","","","","","","","","","","","","","","","","","","","","","","","","","","","","",""
"","iti_localizer","","html-keyboard-response","129","122788","0.0-2.0-37.0-1.0","12","77890","11","null","","","","null","","35","","","1","","","","","","0.3","34.39999999999999","","","","","","","","","","","","","","","","","","","","","","","","","","","","","","","","","","","","","","","","","","","","","","","","","","","",""
"","localizer","","html-keyboard-response","130","123206","0.0-2.0-38.0-0.0","12","77890","11","NaN","","","","null","NaN","36","","Stimuli/Experimental_stims/localizer/faces/ian-dooley-d1UPkiFd04A-unsplash.jpg","1","faces","","0","1","0","0.4","34.69999999999999","","","","","","","","","","","","","","","","","","","","","","","","","","","","","","","","","","","","","","","","","","","","","","","","","","","",""
"","iti_localizer","","html-keyboard-response","131","123518","0.0-2.0-38.0-1.0","12","77890","11","null","","","","null","","36","","","1","","","","","","0.3","35.09999999999999","","","","","","","","","","","","","","","","","","","","","","","","","","","","","","","","","","","","","","","","","","","","","","","","","","","",""
"","localizer","","html-keyboard-response","132","123950","0.0-2.0-39.0-0.0","12","77890","11","NaN","","","","null","NaN","37","","Stimuli/Experimental_stims/localizer/faces/carlos-vaz-KP4bxnxAilU-unsplash.jpg","1","faces","","0","1","0","0.4","35.399999999999984","","","","","","","","","","","","","","","","","","","","","","","","","","","","","","","","","","","","","","","","","","","","","","","","","","","",""
"","iti_localizer","","html-keyboard-response","133","124261","0.0-2.0-39.0-1.0","12","77890","11","null","","","","null","","37","","","1","","","","","","0.3","35.79999999999998","","","","","","","","","","","","","","","","","","","","","","","","","","","","","","","","","","","","","","","","","","","","","","","","","","","",""
"","localizer","","html-keyboard-response","134","124671","0.0-2.0-40.0-0.0","12","77890","11","NaN","","","","null","NaN","38","","Stimuli/Experimental_stims/localizer/faces/elijah-hiett-umfpFoKxIVg-unsplash.jpg","1","faces","","0","1","0","0.4","36.09999999999998","","","","","","","","","","","","","","","","","","","","","","","","","","","","","","","","","","","","","","","","","","","","","","","","","","","",""
"","iti_localizer","","html-keyboard-response","135","124978","0.0-2.0-40.0-1.0","12","77890","11","null","","","","null","","38","","","1","","","","","","0.3","36.49999999999998","","","","","","","","","","","","","","","","","","","","","","","","","","","","","","","","","","","","","","","","","","","","","","","","","","","",""
"","localizer","","html-keyboard-response","136","125388","0.0-2.0-41.0-0.0","12","77890","11","NaN","","","","null","NaN","39","","Stimuli/Experimental_stims/localizer/faces/foto-sushi-6anudmpILw4-unsplash.jpg","1","faces","","0","1","0","0.4","36.799999999999976","","","","","","","","","","","","","","","","","","","","","","","","","","","","","","","","","","","","","","","","","","","","","","","","","","","",""
"","iti_localizer","","html-keyboard-response","137","125703","0.0-2.0-41.0-1.0","12","77890","11","null","","","","null","","39","","","1","","","","","","0.3","37.199999999999974","","","","","","","","","","","","","","","","","","","","","","","","","","","","","","","","","","","","","","","","","","","","","","","","","","","",""
"","localizer","","html-keyboard-response","138","126116","0.0-2.0-42.0-0.0","12","77890","11","NaN","","","","null","NaN","40","","Stimuli/Experimental_stims/localizer/faces/etty-fidele-nF8eo2nX374-unsplash.jpg","1","faces","","0","1","0","0.4","37.49999999999997","","","","","","","","","","","","","","","","","","","","","","","","","","","","","","","","","","","","","","","","","","","","","","","","","","","",""
"","iti_localizer","","html-keyboard-response","139","126432","0.0-2.0-42.0-1.0","12","77890","11","null","","","","null","","40","","","1","","","","","","0.3","37.89999999999997","","","","","","","","","","","","","","","","","","","","","","","","","","","","","","","","","","","","","","","","","","","","","","","","","","","",""
"","localizer","","html-keyboard-response","140","126844","0.0-2.0-43.0-0.0","12","77890","11","NaN","","","","null","NaN","41","","Stimuli/Experimental_stims/localizer/faces/linkedin-sales-solutions-pAtA8xe_iVM-unsplash.jpg","1","faces","","0","1","0","0.4","38.19999999999997","","","","","","","","","","","","","","","","","","","","","","","","","","","","","","","","","","","","","","","","","","","","","","","","","","","",""
"","iti_localizer","","html-keyboard-response","141","127158","0.0-2.0-43.0-1.0","12","77890","11","null","","","","null","","41","","","1","","","","","","0.3","38.599999999999966","","","","","","","","","","","","","","","","","","","","","","","","","","","","","","","","","","","","","","","","","","","","","","","","","","","",""
"","localizer","","html-keyboard-response","142","127572","0.0-2.0-44.0-0.0","12","77890","11","NaN","","","","null","NaN","42","","Stimuli/Experimental_stims/localizer/faces/philip-martin-5aGUyCW_PJw-unsplash.jpg","1","faces","","1","1","0","0.4","38.89999999999996","","","","","","","","","","","","","","","","","","","","","","","","","","","","","","","","","","","","","","","","","","","","","","","","","","","",""
"","iti_localizer","","html-keyboard-response","143","127888","0.0-2.0-44.0-1.0","12","77890","11","null","","","","null","","42","","","1","","","","","","0.3","39.29999999999996","","","","","","","","","","","","","","","","","","","","","","","","","","","","","","","","","","","","","","","","","","","","","","","","","","","",""
"","localizer","","html-keyboard-response","144","128299","0.0-2.0-45.0-0.0","12","77890","11","NaN","","","","null","NaN","43","","Stimuli/Experimental_stims/localizer/faces/samuel-dixon--fQ5XNOcqFQ-unsplash.jpg","1","faces","","0","1","0","0.4","39.59999999999996","","","","","","","","","","","","","","","","","","","","","","","","","","","","","","","","","","","","","","","","","","","","","","","","","","","",""
"","iti_localizer","","html-keyboard-response","145","128614","0.0-2.0-45.0-1.0","12","77890","11","null","","","","null","","43","","","1","","","","","","0.3","39.99999999999996","","","","","","","","","","","","","","","","","","","","","","","","","","","","","","","","","","","","","","","","","","","","","","","","","","","",""
"","localizer","","html-keyboard-response","146","129030","0.0-2.0-46.0-0.0","12","77890","11","NaN","","","","null","NaN","44","","Stimuli/Experimental_stims/localizer/faces/tyler-nix-ZGa9d1a_4tA-unsplash.jpg","1","faces","","0","1","0","0.4","40.299999999999955","","","","","","","","","","","","","","","","","","","","","","","","","","","","","","","","","","","","","","","","","","","","","","","","","","","",""
"","iti_localizer","","html-keyboard-response","147","129340","0.0-2.0-46.0-1.0","12","77890","11","null","","","","null","","44","","","1","","","","","","0.3","40.69999999999995","","","","","","","","","","","","","","","","","","","","","","","","","","","","","","","","","","","","","","","","","","","","","","","","","","","",""
"","localizer","","html-keyboard-response","148","129752","0.0-2.0-47.0-0.0","12","77890","11","NaN","","","","null","NaN","45","","Stimuli/Experimental_stims/localizer/faces/ayo-ogunseinde-6W4F62sN_yI-unsplash.jpg","1","faces","","0","1","0","0.4","40.99999999999995","","","","","","","","","","","","","","","","","","","","","","","","","","","","","","","","","","","","","","","","","","","","","","","","","","","",""
"","iti_localizer","","html-keyboard-response","149","130061","0.0-2.0-47.0-1.0","12","77890","11","null","","","","null","","45","","","1","","","","","","14","41.39999999999995","","","","","","","","","","","","","","","","","","","","","","","","","","","","","","","","","","","","","","","","","","","","","","","","","","","",""
"","localizer","","html-keyboard-response","150","130470","0.0-2.0-48.0-0.0","12","77890","11","NaN","","","","null","NaN","46","","Stimuli/Experimental_stims/localizer/objects/hipster-mum-XookgCxFw6Q-unsplash.jpg","1","objects","","0","1","0","0.4","55.39999999999995","","","","","","","","","","","","","","","","","","","","","","","","","","","","","","","","","","","","","","","","","","","","","","","","","","","",""
"","iti_localizer","","html-keyboard-response","151","130791","0.0-2.0-48.0-1.0","12","77890","11","null","","","","null","","46","","","1","","","","","","0.3","55.79999999999995","","","","","","","","","","","","","","","","","","","","","","","","","","","","","","","","","","","","","","","","","","","","","","","","","","","",""
"","localizer","","html-keyboard-response","152","131204","0.0-2.0-49.0-0.0","12","77890","11","NaN","","","","null","NaN","47","","Stimuli/Experimental_stims/localizer/objects/adriano-pucciarelli-BE7yaZnZX6o-unsplash.jpg","1","objects","","0","1","0","0.4","56.099999999999945","","","","","","","","","","","","","","","","","","","","","","","","","","","","","","","","","","","","","","","","","","","","","","","","","","","",""
"","iti_localizer","","html-keyboard-response","153","131514","0.0-2.0-49.0-1.0","12","77890","11","null","","","","null","","47","","","1","","","","","","0.3","56.49999999999994","","","","","","","","","","","","","","","","","","","","","","","","","","","","","","","","","","","","","","","","","","","","","","","","","","","",""
"","localizer","","html-keyboard-response","154","131925","0.0-2.0-50.0-0.0","12","77890","11","NaN","","","","null","NaN","48","","Stimuli/Experimental_stims/localizer/objects/ana-9GmAaEMMKho-unsplash.jpg","1","objects","","0","1","0","0.4","56.79999999999994","","","","","","","","","","","","","","","","","","","","","","","","","","","","","","","","","","","","","","","","","","","","","","","","","","","",""
"","iti_localizer","","html-keyboard-response","155","132236","0.0-2.0-50.0-1.0","12","77890","11","null","","","","null","","48","","","1","","","","","","0.3","57.19999999999994","","","","","","","","","","","","","","","","","","","","","","","","","","","","","","","","","","","","","","","","","","","","","","","","","","","",""
"","localizer","","html-keyboard-response","156","132644","0.0-2.0-51.0-0.0","12","77890","11","NaN","","","","null","NaN","49","","Stimuli/Experimental_stims/localizer/objects/andrew-petrov-TVJqDat4MAw-unsplash.jpg","1","objects","","0","1","0","0.4","57.499999999999936","","","","","","","","","","","","","","","","","","","","","","","","","","","","","","","","","","","","","","","","","","","","","","","","","","","",""
"","iti_localizer","","html-keyboard-response","157","132966","0.0-2.0-51.0-1.0","12","77890","11","null","","","","null","","49","","","1","","","","","","0.3","57.899999999999935","","","","","","","","","","","","","","","","","","","","","","","","","","","","","","","","","","","","","","","","","","","","","","","","","","","",""
"","localizer","","html-keyboard-response","158","133379","0.0-2.0-52.0-0.0","12","77890","11","NaN","","","","null","NaN","50","","Stimuli/Experimental_stims/localizer/objects/ales-krivec-ZMZHcvIVgbg-unsplash.jpg","1","objects","","1","1","0","0.4","58.19999999999993","","","","","","","","","","","","","","","","","","","","","","","","","","","","","","","","","","","","","","","","","","","","","","","","","","","",""
"","iti_localizer","","html-keyboard-response","159","133692","0.0-2.0-52.0-1.0","12","77890","11","null","","","","null","","50","","","1","","","","","","0.3","58.59999999999993","","","","","","","","","","","","","","","","","","","","","","","","","","","","","","","","","","","","","","","","","","","","","","","","","","","",""
"","localizer","","html-keyboard-response","160","134104","0.0-2.0-53.0-0.0","12","77890","11","NaN","","","","null","NaN","51","","Stimuli/Experimental_stims/localizer/objects/petr-sidorov-3jm5TGqtULU-unsplash.jpg","1","objects","","0","1","0","0.4","58.89999999999993","","","","","","","","","","","","","","","","","","","","","","","","","","","","","","","","","","","","","","","","","","","","","","","","","","","",""
"","iti_localizer","","html-keyboard-response","161","134411","0.0-2.0-53.0-1.0","12","77890","11","null","","","","null","","51","","","1","","","","","","0.3","59.299999999999926","","","","","","","","","","","","","","","","","","","","","","","","","","","","","","","","","","","","","","","","","","","","","","","","","","","",""
"","localizer","","html-keyboard-response","162","134822","0.0-2.0-54.0-0.0","12","77890","11","NaN","","","","null","NaN","52","","Stimuli/Experimental_stims/localizer/objects/jonny-caspari-wsvCC6UyKjs-unsplash.jpg","1","objects","","0","1","0","0.4","59.59999999999992","","","","","","","","","","","","","","","","","","","","","","","","","","","","","","","","","","","","","","","","","","","","","","","","","","","",""
"","iti_localizer","","html-keyboard-response","163","135132","0.0-2.0-54.0-1.0","12","77890","11","null","","","","null","","52","","","1","","","","","","0.3","59.99999999999992","","","","","","","","","","","","","","","","","","","","","","","","","","","","","","","","","","","","","","","","","","","","","","","","","","","",""
"","localizer","","html-keyboard-response","164","135561","0.0-2.0-55.0-0.0","12","77890","11","NaN","","","","null","NaN","53","","Stimuli/Experimental_stims/localizer/objects/quaritsch-photography-lZ8onQ1wuY8-unsplash.jpg","1","objects","","0","1","0","0.4","60.29999999999992","","","","","","","","","","","","","","","","","","","","","","","","","","","","","","","","","","","","","","","","","","","","","","","","","","","",""
"","iti_localizer","","html-keyboard-response","165","135876","0.0-2.0-55.0-1.0","12","77890","11","null","","","","null","","53","","","1","","","","","","0.3","60.69999999999992","","","","","","","","","","","","","","","","","","","","","","","","","","","","","","","","","","","","","","","","","","","","","","","","","","","",""
"","localizer","","html-keyboard-response","166","136288","0.0-2.0-56.0-0.0","12","77890","11","NaN","","","","null","NaN","54","","Stimuli/Experimental_stims/localizer/objects/quino-al-4SNUcHPiC8c-unsplash.jpg","1","objects","","0","1","0","0.4","60.999999999999915","","","","","","","","","","","","","","","","","","","","","","","","","","","","","","","","","","","","","","","","","","","","","","","","","","","",""
"","iti_localizer","","html-keyboard-response","167","136599","0.0-2.0-56.0-1.0","12","77890","11","null","","","","null","","54","","","1","","","","","","0.3","61.39999999999991","","","","","","","","","","","","","","","","","","","","","","","","","","","","","","","","","","","","","","","","","","","","","","","","","","","",""
"","localizer","","html-keyboard-response","168","137011","0.0-2.0-57.0-0.0","12","77890","11","NaN","","","","null","NaN","55","","Stimuli/Experimental_stims/localizer/objects/nicolas-hippert-kfr_eSrR08M-unsplash.jpg","1","objects","","0","1","0","0.4","61.69999999999991","","","","","","","","","","","","","","","","","","","","","","","","","","","","","","","","","","","","","","","","","","","","","","","","","","","",""
"","iti_localizer","","html-keyboard-response","169","137324","0.0-2.0-57.0-1.0","12","77890","11","null","","","","null","","55","","","1","","","","","","0.3","62.09999999999991","","","","","","","","","","","","","","","","","","","","","","","","","","","","","","","","","","","","","","","","","","","","","","","","","","","",""
"","localizer","","html-keyboard-response","170","137736","0.0-2.0-58.0-0.0","12","77890","11","NaN","","","","null","NaN","56","","Stimuli/Experimental_stims/localizer/objects/recha-oktaviani-t__61ap00Mc-unsplash.jpg","1","objects","","0","1","0","0.4","62.399999999999906","","","","","","","","","","","","","","","","","","","","","","","","","","","","","","","","","","","","","","","","","","","","","","","","","","","",""
"","iti_localizer","","html-keyboard-response","171","138048","0.0-2.0-58.0-1.0","12","77890","11","null","","","","null","","56","","","1","","","","","","0.3","62.799999999999905","","","","","","","","","","","","","","","","","","","","","","","","","","","","","","","","","","","","","","","","","","","","","","","","","","","",""
"","localizer","","html-keyboard-response","172","138460","0.0-2.0-59.0-0.0","12","77890","11","NaN","","","","null","NaN","57","","Stimuli/Experimental_stims/localizer/objects/engin-akyurt-bbbKzTmY2Gg-unsplash.jpg","1","objects","","0","1","0","0.4","63.0999999999999","","","","","","","","","","","","","","","","","","","","","","","","","","","","","","","","","","","","","","","","","","","","","","","","","","","",""
"","iti_localizer","","html-keyboard-response","173","138773","0.0-2.0-59.0-1.0","12","77890","11","null","","","","null","","57","","","1","","","","","","0.3","63.4999999999999","","","","","","","","","","","","","","","","","","","","","","","","","","","","","","","","","","","","","","","","","","","","","","","","","","","",""
"","localizer","","html-keyboard-response","174","139194","0.0-2.0-60.0-0.0","12","77890","11","NaN","","","","null","NaN","58","","Stimuli/Experimental_stims/localizer/objects/carlos-felipe-ramirez-mesa-x9g65MOXsPY-unsplash.jpg","1","objects","","0","1","0","0.4","63.7999999999999","","","","","","","","","","","","","","","","","","","","","","","","","","","","","","","","","","","","","","","","","","","","","","","","","","","",""
"","iti_localizer","","html-keyboard-response","175","139512","0.0-2.0-60.0-1.0","12","77890","11","null","","","","null","","58","","","1","","","","","","0.3","64.1999999999999","","","","","","","","","","","","","","","","","","","","","","","","","","","","","","","","","","","","","","","","","","","","","","","","","","","",""
"","localizer","","html-keyboard-response","176","139925","0.0-2.0-61.0-0.0","12","77890","11","NaN","","","","null","NaN","59","","Stimuli/Experimental_stims/localizer/objects/girl-with-red-hat-Xxg-r574pLE-unsplash.jpg","1","objects","","0","1","0","0.4","64.4999999999999","","","","","","","","","","","","","","","","","","","","","","","","","","","","","","","","","","","","","","","","","","","","","","","","","","","",""
"","iti_localizer","","html-keyboard-response","177","140237","0.0-2.0-61.0-1.0","12","77890","11","null","","","","null","","59","","","1","","","","","","0.3","64.8999999999999","","","","","","","","","","","","","","","","","","","","","","","","","","","","","","","","","","","","","","","","","","","","","","","","","","","",""
"","localizer","","html-keyboard-response","178","140645","0.0-2.0-62.0-0.0","12","77890","11","NaN","","","","null","NaN","60","","Stimuli/Experimental_stims/localizer/objects/mockup-graphics-aUkYaG12Dgs-unsplash.jpg","1","objects","","0","1","0","0.4","65.1999999999999","","","","","","","","","","","","","","","","","","","","","","","","","","","","","","","","","","","","","","","","","","","","","","","","","","","",""
"","iti_localizer","","html-keyboard-response","179","140958","0.0-2.0-62.0-1.0","12","77890","11","null","","","","null","","60","","","1","","","","","","0.3","65.59999999999991","","","","","","","","","","","","","","","","","","","","","","","","","","","","","","","","","","","","","","","","","","","","","","","","","","","",""
"","localizer","","html-keyboard-response","180","141371","0.0-2.0-63.0-0.0","12","77890","11","NaN","","","","null","NaN","61","","Stimuli/Experimental_stims/localizer/objects/florian-klauer-nptLmg6jqDo-unsplash.jpg","1","objects","","0","1","0","0.4","65.8999999999999","","","","","","","","","","","","","","","","","","","","","","","","","","","","","","","","","","","","","","","","","","","","","","","","","","","",""
"","iti_localizer","","html-keyboard-response","181","141687","0.0-2.0-63.0-1.0","12","77890","11","null","","","","null","","61","","","1","","","","","","0.3","66.29999999999991","","","","","","","","","","","","","","","","","","","","","","","","","","","","","","","","","","","","","","","","","","","","","","","","","","","",""
"","localizer","","html-keyboard-response","182","142100","0.0-2.0-64.0-0.0","12","77890","11","NaN","","","","null","NaN","62","","Stimuli/Experimental_stims/localizer/objects/mockup-graphics-v_a3DWpOFc0-unsplash.jpg","1","objects","","1","1","0","0.4","66.59999999999991","","","","","","","","","","","","","","","","","","","","","","","","","","","","","","","","","","","","","","","","","","","","","","","","","","","",""
"","iti_localizer","","html-keyboard-response","183","142416","0.0-2.0-64.0-1.0","12","77890","11","null","","","","null","","62","","","1","","","","","","0.3","66.99999999999991","","","","","","","","","","","","","","","","","","","","","","","","","","","","","","","","","","","","","","","","","","","","","","","","","","","",""
"","localizer","","html-keyboard-response","184","142832","0.0-2.0-65.0-0.0","12","77890","11","NaN","","","","null","NaN","63","","Stimuli/Experimental_stims/localizer/objects/yossy-made-yulian-WaEqwDSIeTY-unsplash.jpg","1","objects","","0","1","0","0.4","67.29999999999991","","","","","","","","","","","","","","","","","","","","","","","","","","","","","","","","","","","","","","","","","","","","","","","","","","","",""
"","iti_localizer","","html-keyboard-response","185","143140","0.0-2.0-65.0-1.0","12","77890","11","null","","","","null","","63","","","1","","","","","","0.3","67.69999999999992","","","","","","","","","","","","","","","","","","","","","","","","","","","","","","","","","","","","","","","","","","","","","","","","","","","",""
"","localizer","","html-keyboard-response","186","143550","0.0-2.0-66.0-0.0","12","77890","11","NaN","","","","null","NaN","64","","Stimuli/Experimental_stims/localizer/objects/nordwood-themes-nDd3dIkkOLo-unsplash.jpg","1","objects","","0","1","0","0.4","67.99999999999991","","","","","","","","","","","","","","","","","","","","","","","","","","","","","","","","","","","","","","","","","","","","","","","","","","","",""
"","iti_localizer","","html-keyboard-response","187","143862","0.0-2.0-66.0-1.0","12","77890","11","null","","","","null","","64","","","1","","","","","","0.3","68.39999999999992","","","","","","","","","","","","","","","","","","","","","","","","","","","","","","","","","","","","","","","","","","","","","","","","","","","",""
"","localizer","","html-keyboard-response","188","144278","0.0-2.0-67.0-0.0","12","77890","11","NaN","","","","null","NaN","65","","Stimuli/Experimental_stims/localizer/objects/markus-spiske-ANrVtttbNss-unsplash.jpg","1","objects","","0","1","0","0.4","68.69999999999992","","","","","","","","","","","","","","","","","","","","","","","","","","","","","","","","","","","","","","","","","","","","","","","","","","","",""
"","iti_localizer","","html-keyboard-response","189","144588","0.0-2.0-67.0-1.0","12","77890","11","null","","","","null","","65","","","1","","","","","","14","69.09999999999992","","","","","","","","","","","","","","","","","","","","","","","","","","","","","","","","","","","","","","","","","","","","","","","","","","","",""
"","localizer","","html-keyboard-response","190","144999","0.0-2.0-68.0-0.0","12","77890","11","NaN","","","","null","NaN","66","","Stimuli/Experimental_stims/localizer/body_parts/ant-rozetsky-bXQd8JXx0vs-unsplash.jpg","1","body_parts","","0","1","0","0.4","83.09999999999992","","","","","","","","","","","","","","","","","","","","","","","","","","","","","","","","","","","","","","","","","","","","","","","","","","","",""
"","iti_localizer","","html-keyboard-response","191","145305","0.0-2.0-68.0-1.0","12","77890","11","null","","","","null","","66","","","1","","","","","","0.3","83.49999999999993","","","","","","","","","","","","","","","","","","","","","","","","","","","","","","","","","","","","","","","","","","","","","","","","","","","",""
"","localizer","","html-keyboard-response","192","145718","0.0-2.0-69.0-0.0","12","77890","11","NaN","","","","null","NaN","67","","Stimuli/Experimental_stims/localizer/body_parts/callum-skelton-3KLMq7y46nA-unsplash.jpg","1","body_parts","","0","1","0","0.4","83.79999999999993","","","","","","","","","","","","","","","","","","","","","","","","","","","","","","","","","","","","","","","","","","","","","","","","","","","",""
"","iti_localizer","","html-keyboard-response","193","146029","0.0-2.0-69.0-1.0","12","77890","11","null","","","","null","","67","","","1","","","","","","0.3","84.19999999999993","","","","","","","","","","","","","","","","","","","","","","","","","","","","","","","","","","","","","","","","","","","","","","","","","","","",""
"","localizer","","html-keyboard-response","194","146448","0.0-2.0-70.0-0.0","12","77890","11","NaN","","","","null","NaN","68","","Stimuli/Experimental_stims/localizer/body_parts/meghan-thompson-U1b8OB0QpIo-unsplash.jpg","1","body_parts","","0","1","0","0.4","84.49999999999993","","","","","","","","","","","","","","","","","","","","","","","","","","","","","","","","","","","","","","","","","","","","","","","","","","","",""
"","iti_localizer","","html-keyboard-response","195","146776","0.0-2.0-70.0-1.0","12","77890","11","null","","","","null","","68","","","1","","","","","","0.3","84.89999999999993","","","","","","","","","","","","","","","","","","","","","","","","","","","","","","","","","","","","","","","","","","","","","","","","","","","",""
"","localizer","","html-keyboard-response","196","147191","0.0-2.0-71.0-0.0","12","77890","11","NaN","","","","null","NaN","69","","Stimuli/Experimental_stims/localizer/body_parts/betzy-arosemena-YHdgnygtVCQ-unsplash.jpg","1","body_parts","","1","1","0","0.4","85.19999999999993","","","","","","","","","","","","","","","","","","","","","","","","","","","","","","","","","","","","","","","","","","","","","","","","","","","",""
"","iti_localizer","","html-keyboard-response","197","147501","0.0-2.0-71.0-1.0","12","77890","11","null","","","","null","","69","","","1","","","","","","0.3","85.59999999999994","","","","","","","","","","","","","","","","","","","","","","","","","","","","","","","","","","","","","","","","","","","","","","","","","","","",""
"","localizer","","html-keyboard-response","198","147915","0.0-2.0-72.0-0.0","12","77890","11","NaN","","","","null","NaN","70","","Stimuli/Experimental_stims/localizer/body_parts/kai-wenzel-zYDJOxjaZrQ-unsplash.jpg","1","body_parts","","0","1","0","0.4","85.89999999999993","","","","","","","","","","","","","","","","","","","","","","","","","","","","","","","","","","","","","","","","","","","","","","","","","","","",""
"","iti_localizer","","html-keyboard-response","199","148228","0.0-2.0-72.0-1.0","12","77890","11","null","","","","null","","70","","","1","","","","","","0.3","86.29999999999994","","","","","","","","","","","","","","","","","","","","","","","","","","","","","","","","","","","","","","","","","","","","","","","","","","","",""
"","localizer","","html-keyboard-response","200","148642","0.0-2.0-73.0-0.0","12","77890","11","NaN","","","","null","NaN","71","","Stimuli/Experimental_stims/localizer/body_parts/charles-etoroma-1fo0biloDOc-unsplash.jpg","1","body_parts","","0","1","0","0.4","86.59999999999994","","","","","","","","","","","","","","","","","","","","","","","","","","","","","","","","","","","","","","","","","","","","","","","","","","","",""
"","iti_localizer","","html-keyboard-response","201","148955","0.0-2.0-73.0-1.0","12","77890","11","null","","","","null","","71","","","1","","","","","","0.3","86.99999999999994","","","","","","","","","","","","","","","","","","","","","","","","","","","","","","","","","","","","","","","","","","","","","","","","","","","",""
"","localizer","","html-keyboard-response","202","149367","0.0-2.0-74.0-0.0","12","77890","11","NaN","","","","null","NaN","72","","Stimuli/Experimental_stims/localizer/body_parts/sincerely-media-3DZHTq_i7Qk-unsplash.jpg","1","body_parts","","0","1","0","0.4","87.29999999999994","","","","","","","","","","","","","","","","","","","","","","","","","","","","","","","","","","","","","","","","","","","","","","","","","","","",""
"","iti_localizer","","html-keyboard-response","203","149675","0.0-2.0-74.0-1.0","12","77890","11","null","","","","null","","72","","","1","","","","","","0.3","87.69999999999995","","","","","","","","","","","","","","","","","","","","","","","","","","","","","","","","","","","","","","","","","","","","","","","","","","","",""
"","localizer","","html-keyboard-response","204","150085","0.0-2.0-75.0-0.0","12","77890","11","NaN","","","","null","NaN","73","","Stimuli/Experimental_stims/localizer/body_parts/jeremy-bishop-mLd3hAaH2ns-unsplash.jpg","1","body_parts","","0","1","0","0.4","87.99999999999994","","","","","","","","","","","","","","","","","","","","","","","","","","","","","","","","","","","","","","","","","","","","","","","","","","","",""
"","iti_localizer","","html-keyboard-response","205","150399","0.0-2.0-75.0-1.0","12","77890","11","null","","","","null","","73","","","1","","","","","","0.3","88.39999999999995","","","","","","","","","","","","","","","","","","","","","","","","","","","","","","","","","","","","","","","","","","","","","","","","","","","",""
"","localizer","","html-keyboard-response","206","150816","0.0-2.0-76.0-0.0","12","77890","11","NaN","","","","null","NaN","74","","Stimuli/Experimental_stims/localizer/body_parts/danie-franco-jyyNiSEcCl4-unsplash.jpg","1","body_parts","","0","1","0","0.4","88.69999999999995","","","","","","","","","","","","","","","","","","","","","","","","","","","","","","","","","","","","","","","","","","","","","","","","","","","",""
"","iti_localizer","","html-keyboard-response","207","151128","0.0-2.0-76.0-1.0","12","77890","11","null","","","","null","","74","","","1","","","","","","0.3","89.09999999999995","","","","","","","","","","","","","","","","","","","","","","","","","","","","","","","","","","","","","","","","","","","","","","","","","","","",""
"","localizer","","html-keyboard-response","208","151559","0.0-2.0-77.0-0.0","12","77890","11","NaN","","","","null","NaN","75","","Stimuli/Experimental_stims/localizer/body_parts/pure-julia-9lVaya31sMk-unsplash.jpg","1","body_parts","","0","1","0","0.4","89.39999999999995","","","","","","","","","","","","","","","","","","","","","","","","","","","","","","","","","","","","","","","","","","","","","","","","","","","",""
"","iti_localizer","","html-keyboard-response","209","151870","0.0-2.0-77.0-1.0","12","77890","11","null","","","","null","","75","","","1","","","","","","0.3","89.79999999999995","","","","","","","","","","","","","","","","","","","","","","","","","","","","","","","","","","","","","","","","","","","","","","","","","","","",""
"","localizer","","html-keyboard-response","210","152290","0.0-2.0-78.0-0.0","12","77890","11","NaN","","","","null","NaN","76","","Stimuli/Experimental_stims/localizer/body_parts/ignacio-campo-tC9boyqy_40-unsplash.jpg","1","body_parts","","0","1","0","0.4","90.09999999999995","","","","","","","","","","","","","","","","","","","","","","","","","","","","","","","","","","","","","","","","","","","","","","","","","","","",""
"","iti_localizer","","html-keyboard-response","211","152602","0.0-2.0-78.0-1.0","12","77890","11","null","","","","null","","76","","","1","","","","","","0.3","90.49999999999996","","","","","","","","","","","","","","","","","","","","","","","","","","","","","","","","","","","","","","","","","","","","","","","","","","","",""
"","localizer","","html-keyboard-response","212","153013","0.0-2.0-79.0-0.0","12","77890","11","NaN","","","","null","NaN","77","","Stimuli/Experimental_stims/localizer/body_parts/louis-hansel-FjKTMRTQYAs-unsplash.jpg","1","body_parts","","0","1","0","0.4","90.79999999999995","","","","","","","","","","","","","","","","","","","","","","","","","","","","","","","","","","","","","","","","","","","","","","","","","","","",""
"","iti_localizer","","html-keyboard-response","213","153322","0.0-2.0-79.0-1.0","12","77890","11","null","","","","null","","77","","","1","","","","","","0.3","91.19999999999996","","","","","","","","","","","","","","","","","","","","","","","","","","","","","","","","","","","","","","","","","","","","","","","","","","","",""
"","localizer","","html-keyboard-response","214","153733","0.0-2.0-80.0-0.0","12","77890","11","NaN","","","","null","NaN","78","","Stimuli/Experimental_stims/localizer/body_parts/davidcohen-qghuLqyh3nE-unsplash.jpg","1","body_parts","","0","1","0","0.4","91.49999999999996","","","","","","","","","","","","","","","","","","","","","","","","","","","","","","","","","","","","","","","","","","","","","","","","","","","",""
"","iti_localizer","","html-keyboard-response","215","154042","0.0-2.0-80.0-1.0","12","77890","11","null","","","","null","","78","","","1","","","","","","0.3","91.89999999999996","","","","","","","","","","","","","","","","","","","","","","","","","","","","","","","","","","","","","","","","","","","","","","","","","","","",""
"","localizer","","html-keyboard-response","216","154455","0.0-2.0-81.0-0.0","12","77890","11","NaN","","","","null","NaN","79","","Stimuli/Experimental_stims/localizer/body_parts/jan-romero-DL4DDQb8yjc-unsplash.jpg","1","body_parts","","1","1","0","0.4","92.19999999999996","","","","","","","","","","","","","","","","","","","","","","","","","","","","","","","","","","","","","","","","","","","","","","","","","","","",""
"","iti_localizer","","html-keyboard-response","217","154762","0.0-2.0-81.0-1.0","12","77890","11","null","","","","null","","79","","","1","","","","","","0.3","92.59999999999997","","","","","","","","","","","","","","","","","","","","","","","","","","","","","","","","","","","","","","","","","","","","","","","","","","","",""
"","localizer","","html-keyboard-response","218","155174","0.0-2.0-82.0-0.0","12","77890","11","NaN","","","","null","NaN","80","","Stimuli/Experimental_stims/localizer/body_parts/niu-niu-5HzOtV-FSlw-unsplash.jpg","1","body_parts","","0","1","0","0.4","92.89999999999996","","","","","","","","","","","","","","","","","","","","","","","","","","","","","","","","","","","","","","","","","","","","","","","","","","","",""
"","iti_localizer","","html-keyboard-response","219","155488","0.0-2.0-82.0-1.0","12","77890","11","null","","","","null","","80","","","1","","","","","","0.3","93.29999999999997","","","","","","","","","","","","","","","","","","","","","","","","","","","","","","","","","","","","","","","","","","","","","","","","","","","",""
"","localizer","","html-keyboard-response","220","155901","0.0-2.0-83.0-0.0","12","77890","11","NaN","","","","null","NaN","81","","Stimuli/Experimental_stims/localizer/body_parts/ben-hartley-RbrsejLGVZ8-unsplash.jpg","1","body_parts","","0","1","0","0.4","93.59999999999997","","","","","","","","","","","","","","","","","","","","","","","","","","","","","","","","","","","","","","","","","","","","","","","","","","","",""
"","iti_localizer","","html-keyboard-response","221","156212","0.0-2.0-83.0-1.0","12","77890","11","null","","","","null","","81","","","1","","","","","","0.3","93.99999999999997","","","","","","","","","","","","","","","","","","","","","","","","","","","","","","","","","","","","","","","","","","","","","","","","","","","",""
"","localizer","","html-keyboard-response","222","156618","0.0-2.0-84.0-0.0","12","77890","11","NaN","","","","null","NaN","82","","Stimuli/Experimental_stims/localizer/body_parts/jonathan-borba-hTwH8QFkPMs-unsplash.jpg","1","body_parts","","0","1","0","0.4","94.29999999999997","","","","","","","","","","","","","","","","","","","","","","","","","","","","","","","","","","","","","","","","","","","","","","","","","","","",""
"","iti_localizer","","html-keyboard-response","223","156931","0.0-2.0-84.0-1.0","12","77890","11","null","","","","null","","82","","","1","","","","","","0.3","94.69999999999997","","","","","","","","","","","","","","","","","","","","","","","","","","","","","","","","","","","","","","","","","","","","","","","","","","","",""
"","localizer","","html-keyboard-response","224","157340","0.0-2.0-85.0-0.0","12","77890","11","NaN","","","","null","NaN","83","","Stimuli/Experimental_stims/localizer/body_parts/boyd-christiansen-uVj7kewrZ-o-unsplash.jpg","1","body_parts","","0","1","0","0.4","94.99999999999997","","","","","","","","","","","","","","","","","","","","","","","","","","","","","","","","","","","","","","","","","","","","","","","","","","","",""
"","iti_localizer","","html-keyboard-response","225","157652","0.0-2.0-85.0-1.0","12","77890","11","null","","","","null","","83","","","1","","","","","","0.3","95.39999999999998","","","","","","","","","","","","","","","","","","","","","","","","","","","","","","","","","","","","","","","","","","","","","","","","","","","",""
"","localizer","","html-keyboard-response","226","158079","0.0-2.0-86.0-0.0","12","77890","11","NaN","","","","null","NaN","84","","Stimuli/Experimental_stims/localizer/body_parts/toa-heftiba-qxvWnfHb3-M-unsplash.jpg","1","body_parts","","0","1","0","0.4","95.69999999999997","","","","","","","","","","","","","","","","","","","","","","","","","","","","","","","","","","","","","","","","","","","","","","","","","","","",""
"","iti_localizer","","html-keyboard-response","227","158388","0.0-2.0-86.0-1.0","12","77890","11","null","","","","null","","84","","","1","","","","","","0.3","96.09999999999998","","","","","","","","","","","","","","","","","","","","","","","","","","","","","","","","","","","","","","","","","","","","","","","","","","","",""
"","localizer","","html-keyboard-response","228","158800","0.0-2.0-87.0-0.0","12","77890","11","NaN","","","","null","NaN","85","","Stimuli/Experimental_stims/localizer/body_parts/sincerely-media-9Zf6yh7RYbQ-unsplash.jpg","1","body_parts","","0","1","0","0.4","96.39999999999998","","","","","","","","","","","","","","","","","","","","","","","","","","","","","","","","","","","","","","","","","","","","","","","","","","","",""
"","iti_localizer","","html-keyboard-response","229","159106","0.0-2.0-87.0-1.0","12","77890","11","null","","","","null","","85","","","1","","","","","","14","96.79999999999998","","","","","","","","","","","","","","","","","","","","","","","","","","","","","","","","","","","","","","","","","","","","","","","","","","","",""
"","localizer","","html-keyboard-response","230","159519","0.0-2.0-88.0-0.0","12","77890","11","NaN","","","","null","NaN","86","","Stimuli/Experimental_stims/localizer/objects/mae-mu-yl2d0CKW130-unsplash.jpg","1","objects","","0","1","0","0.4","110.79999999999998","","","","","","","","","","","","","","","","","","","","","","","","","","","","","","","","","","","","","","","","","","","","","","","","","","","",""
"","iti_localizer","","html-keyboard-response","231","159830","0.0-2.0-88.0-1.0","12","77890","11","null","","","","null","","86","","","1","","","","","","0.3","111.19999999999999","","","","","","","","","","","","","","","","","","","","","","","","","","","","","","","","","","","","","","","","","","","","","","","","","","","",""
"","localizer","","html-keyboard-response","232","160246","0.0-2.0-89.0-0.0","12","77890","11","NaN","","","","null","NaN","87","","Stimuli/Experimental_stims/localizer/objects/nicolas-hippert-SVgX47QIUlc-unsplash.jpg","1","objects","","0","1","0","0.4","111.49999999999999","","","","","","","","","","","","","","","","","","","","","","","","","","","","","","","","","","","","","","","","","","","","","","","","","","","",""
"","iti_localizer","","html-keyboard-response","233","160559","0.0-2.0-89.0-1.0","12","77890","11","null","","","","null","","87","","","1","","","","","","0.3","111.89999999999999","","","","","","","","","","","","","","","","","","","","","","","","","","","","","","","","","","","","","","","","","","","","","","","","","","","",""
"","localizer","","html-keyboard-response","234","160976","0.0-2.0-90.0-0.0","12","77890","11","NaN","","","","null","NaN","88","","Stimuli/Experimental_stims/localizer/objects/ignat-dolomanov-kFBDVnmskPA-unsplash.jpg","1","objects","","0","1","0","0.4","112.19999999999999","","","","","","","","","","","","","","","","","","","","","","","","","","","","","","","","","","","","","","","","","","","","","","","","","","","",""
"","iti_localizer","","html-keyboard-response","235","161287","0.0-2.0-90.0-1.0","12","77890","11","null","","","","null","","88","","","1","","","","","","0.3","112.6","","","","","","","","","","","","","","","","","","","","","","","","","","","","","","","","","","","","","","","","","","","","","","","","","","","",""
"","localizer","","html-keyboard-response","236","161704","0.0-2.0-91.0-0.0","12","77890","11","NaN","","","","null","NaN","89","","Stimuli/Experimental_stims/localizer/objects/quino-al-8gWEAAXJjtI-unsplash.jpg","1","objects","","0","1","0","0.4","112.89999999999999","","","","","","","","","","","","","","","","","","","","","","","","","","","","","","","","","","","","","","","","","","","","","","","","","","","",""
"","iti_localizer","","html-keyboard-response","237","162014","0.0-2.0-91.0-1.0","12","77890","11","null","","","","null","","89","","","1","","","","","","0.3","113.3","","","","","","","","","","","","","","","","","","","","","","","","","","","","","","","","","","","","","","","","","","","","","","","","","","","",""
"","localizer","","html-keyboard-response","238","162431","0.0-2.0-92.0-0.0","12","77890","11","NaN","","","","null","NaN","90","","Stimuli/Experimental_stims/localizer/objects/sam-moghadam-khamseh-xej3GOtAQ-o-unsplash.jpg","1","objects","","0","1","0","0.4","113.6","","","","","","","","","","","","","","","","","","","","","","","","","","","","","","","","","","","","","","","","","","","","","","","","","","","",""
"","iti_localizer","","html-keyboard-response","239","162741","0.0-2.0-92.0-1.0","12","77890","11","null","","","","null","","90","","","1","","","","","","0.3","114","","","","","","","","","","","","","","","","","","","","","","","","","","","","","","","","","","","","","","","","","","","","","","","","","","","",""
"","localizer","","html-keyboard-response","240","163159","0.0-2.0-93.0-0.0","12","77890","11","NaN","","","","null","NaN","91","","Stimuli/Experimental_stims/localizer/objects/chris-briggs-FobzAZJGM9M-unsplash.jpg","1","objects","","0","1","0","0.4","114.3","","","","","","","","","","","","","","","","","","","","","","","","","","","","","","","","","","","","","","","","","","","","","","","","","","","",""
"","iti_localizer","","html-keyboard-response","241","163468","0.0-2.0-93.0-1.0","12","77890","11","null","","","","null","","91","","","1","","","","","","0.3","114.7","","","","","","","","","","","","","","","","","","","","","","","","","","","","","","","","","","","","","","","","","","","","","","","","","","","",""
"","localizer","","html-keyboard-response","242","163879","0.0-2.0-94.0-0.0","12","77890","11","NaN","","","","null","NaN","92","","Stimuli/Experimental_stims/localizer/objects/yoann-siloine-_T4w3JDm6ug-unsplash.jpg","1","objects","","1","1","0","0.4","115","","","","","","","","","","","","","","","","","","","","","","","","","","","","","","","","","","","","","","","","","","","","","","","","","","","",""
"","iti_localizer","","html-keyboard-response","243","164196","0.0-2.0-94.0-1.0","12","77890","11","null","","","","null","","92","","","1","","","","","","0.3","115.4","","","","","","","","","","","","","","","","","","","","","","","","","","","","","","","","","","","","","","","","","","","","","","","","","","","",""
"","localizer","","html-keyboard-response","244","164613","0.0-2.0-95.0-0.0","12","77890","11","NaN","","","","null","NaN","93","","Stimuli/Experimental_stims/localizer/objects/sam-moghadam-khamseh-L_7MQsHl_aU-unsplash.jpg","1","objects","","0","1","0","0.4","115.7","","","","","","","","","","","","","","","","","","","","","","","","","","","","","","","","","","","","","","","","","","","","","","","","","","","",""
"","iti_localizer","","html-keyboard-response","245","164923","0.0-2.0-95.0-1.0","12","77890","11","null","","","","null","","93","","","1","","","","","","0.3","116.10000000000001","","","","","","","","","","","","","","","","","","","","","","","","","","","","","","","","","","","","","","","","","","","","","","","","","","","",""
"","localizer","","html-keyboard-response","246","165330","0.0-2.0-96.0-0.0","12","77890","11","NaN","","","","null","NaN","94","","Stimuli/Experimental_stims/localizer/objects/miti-MZPdB1DU4a4-unsplash.jpg","1","objects","","0","1","0","0.4","116.4","","","","","","","","","","","","","","","","","","","","","","","","","","","","","","","","","","","","","","","","","","","","","","","","","","","",""
"","iti_localizer","","html-keyboard-response","247","165648","0.0-2.0-96.0-1.0","12","77890","11","null","","","","null","","94","","","1","","","","","","0.3","116.80000000000001","","","","","","","","","","","","","","","","","","","","","","","","","","","","","","","","","","","","","","","","","","","","","","","","","","","",""
"","localizer","","html-keyboard-response","248","166059","0.0-2.0-97.0-0.0","12","77890","11","NaN","","","","null","NaN","95","","Stimuli/Experimental_stims/localizer/objects/barrett-ward-0lMpQaXfOCg-unsplash.jpg","1","objects","","0","1","0","0.4","117.10000000000001","","","","","","","","","","","","","","","","","","","","","","","","","","","","","","","","","","","","","","","","","","","","","","","","","","","",""
"","iti_localizer","","html-keyboard-response","249","166369","0.0-2.0-97.0-1.0","12","77890","11","null","","","","null","","95","","","1","","","","","","0.3","117.50000000000001","","","","","","","","","","","","","","","","","","","","","","","","","","","","","","","","","","","","","","","","","","","","","","","","","","","",""
"","localizer","","html-keyboard-response","250","166781","0.0-2.0-98.0-0.0","12","77890","11","NaN","","","","null","NaN","96","","Stimuli/Experimental_stims/localizer/objects/sam-moghadam-khamseh-kvmdsTrGOBM-unsplash.jpg","1","objects","","0","1","0","0.4","117.80000000000001","","","","","","","","","","","","","","","","","","","","","","","","","","","","","","","","","","","","","","","","","","","","","","","","","","","",""
"","iti_localizer","","html-keyboard-response","251","167090","0.0-2.0-98.0-1.0","12","77890","11","null","","","","null","","96","","","1","","","","","","0.3","118.20000000000002","","","","","","","","","","","","","","","","","","","","","","","","","","","","","","","","","","","","","","","","","","","","","","","","","","","",""
"","localizer","","html-keyboard-response","252","167502","0.0-2.0-99.0-0.0","12","77890","11","NaN","","","","null","NaN","97","","Stimuli/Experimental_stims/localizer/objects/annie-spratt-fbAnIjhrOL4-unsplash.jpg","1","objects","","0","1","0","0.4","118.50000000000001","","","","","","","","","","","","","","","","","","","","","","","","","","","","","","","","","","","","","","","","","","","","","","","","","","","",""
"","iti_localizer","","html-keyboard-response","253","167815","0.0-2.0-99.0-1.0","12","77890","11","null","","","","null","","97","","","1","","","","","","0.3","118.90000000000002","","","","","","","","","","","","","","","","","","","","","","","","","","","","","","","","","","","","","","","","","","","","","","","","","","","",""
"","localizer","","html-keyboard-response","254","168229","0.0-2.0-100.0-0.0","12","77890","11","NaN","","","","null","NaN","98","","Stimuli/Experimental_stims/localizer/objects/muhammad-toqeer-NRJ9ipvz2iE-unsplash.jpg","1","objects","","0","1","0","0.4","119.20000000000002","","","","","","","","","","","","","","","","","","","","","","","","","","","","","","","","","","","","","","","","","","","","","","","","","","","",""
"","iti_localizer","","html-keyboard-response","255","168539","0.0-2.0-100.0-1.0","12","77890","11","null","","","","null","","98","","","1","","","","","","0.3","119.60000000000002","","","","","","","","","","","","","","","","","","","","","","","","","","","","","","","","","","","","","","","","","","","","","","","","","","","",""
"","localizer","","html-keyboard-response","256","168947","0.0-2.0-101.0-0.0","12","77890","11","NaN","","","","null","NaN","99","","Stimuli/Experimental_stims/localizer/objects/designecologist-hvgd0ygXuQQ-unsplash.jpg","1","objects","","0","1","0","0.4","119.90000000000002","","","","","","","","","","","","","","","","","","","","","","","","","","","","","","","","","","","","","","","","","","","","","","","","","","","",""
"","iti_localizer","","html-keyboard-response","257","169263","0.0-2.0-101.0-1.0","12","77890","11","null","","","","null","","99","","","1","","","","","","0.3","120.30000000000003","","","","","","","","","","","","","","","","","","","","","","","","","","","","","","","","","","","","","","","","","","","","","","","","","","","",""
"","localizer","","html-keyboard-response","258","169675","0.0-2.0-102.0-0.0","12","77890","11","NaN","","","","null","NaN","100","","Stimuli/Experimental_stims/localizer/objects/saif71-com-VIKdvmGUhq8-unsplash.jpg","1","objects","","0","1","0","0.4","120.60000000000002","","","","","","","","","","","","","","","","","","","","","","","","","","","","","","","","","","","","","","","","","","","","","","","","","","","",""
"","iti_localizer","","html-keyboard-response","259","169985","0.0-2.0-102.0-1.0","12","77890","11","null","","","","null","","100","","","1","","","","","","0.3","121.00000000000003","","","","","","","","","","","","","","","","","","","","","","","","","","","","","","","","","","","","","","","","","","","","","","","","","","","",""
