"success","ttype","start_time","trial_type","trial_index","time_elapsed","internal_node_id","age","PID","gender","rt","responses","view_history","repeat_instructions","key_press","response","index","stimulus_index","path","start_time_elapsed","left_chosen","chosen_stimulus","unchosen_stimulus","chosen_category","unchosen_category","chosen_rating","unchosen_rating","chosen_path","unchosen_path","no_response","pair_id","practice","scramble_screen_time","scramble_instructed_side","stim_type","iti","block","run","left_stimulus","right_stimulus","left_category","right_category","left_path","right_path","left_rating","right_rating","duration","onset","duration_time_elapsed","onset_time_elapsed","warning","trial_duration","scramble_acc","scramble_no_response"
"true","full_screen","d08132023hr0027","fullscreen","0","2169","0.0-0.0-0.0","44","50477","1","","","","","","","","","","","","","","","","","","","","","","","","","","","","","","","","","","","","","","","","","","","",""
"","get_id","","survey-text","1","7394","0.0-0.0-1.0","44","50477","1","5218","{""Q0"":""44"",""Q1"":""1""}","","","","","","","","","","","","","","","","","","","","","","","","","","","","","","","","","","","","","","","","","",""
"","ratings_instructions","","instructions","2","8963","0.0-1.0-0.0-0.0","44","50477","1","1515","","[{""page_index"":0,""viewing_time"":1133},{""page_index"":1,""viewing_time"":382}]","","","","","","","","","","","","","","","","","","","","","","","","","","","","","","","","","","","","","","","","",""
"","rating_comprehension_check","","survey-multi-choice","3","12084","0.0-1.0-0.0-1.0","44","50477","1","3111","{""Q0"":""True"",""Q1"":""Mouse""}","","0","","","","","","","","","","","","","","","","","","","","","","","","","","","","","","","","","","","","","","","",""
"","","","html-keyboard-response","4","13070","0.0-1.0-1.0","44","50477","1","981","","","","68","","","","","","","","","","","","","","","","","","","","","","","","","","","","","","","","","","","","","","",""
"","rating","","html-slider-response","5","14188","0.0-1.0-2.0","44","50477","1","1111","","","","","50","0","28","Stimuli/Experimental_stims/body_parts/ira-vishnevskaya-8DQAvdCby1I-unsplash.jpg","","","","","","","","","","","","","","","","","","","","","","","","","","","","","","","","","","",""
"","rating","","html-slider-response","6","14346","0.0-1.0-3.0","44","50477","1","153","","","","","50","1","4","Stimuli/Experimental_stims/outdoor_scenes/jarrett-kow-1ZOyYPOBn7I-unsplash.jpg","","","","","","","","","","","","","","","","","","","","","","","","","","","","","","","","","","",""
"","rating","","html-slider-response","7","14605","0.0-1.0-4.0","44","50477","1","255","","","","","50","2","35","Stimuli/Experimental_stims/body_parts/wc-so-KH4AAPjb-tI-unsplash.jpg","","","","","","","","","","","","","","","","","","","","","","","","","","","","","","","","","","",""
"","rating","","html-slider-response","8","14771","0.0-1.0-5.0","44","50477","1","162","","","","","50","3","47","Stimuli/Experimental_stims/objects/ronaldo-arthur-vidal-Cdz_lvnl37k-unsplash.jpg","","","","","","","","","","","","","","","","","","","","","","","","","","","","","","","","","","",""
"","rating","","html-slider-response","9","14931","0.0-1.0-6.0","44","50477","1","155","","","","","50","4","9","Stimuli/Experimental_stims/outdoor_scenes/sergey-pesterev-y-b_FOmJXdg-unsplash.jpg","","","","","","","","","","","","","","","","","","","","","","","","","","","","","","","","","","",""
"","rating","","html-slider-response","10","15084","0.0-1.0-7.0","44","50477","1","149","","","","","50","5","31","Stimuli/Experimental_stims/body_parts/sincerely-media-VN6DbKajo5s-unsplash.jpg","","","","","","","","","","","","","","","","","","","","","","","","","","","","","","","","","","",""
"","rating","","html-slider-response","11","15250","0.0-1.0-8.0","44","50477","1","161","","","","","50","6","5","Stimuli/Experimental_stims/outdoor_scenes/jeff-king-bJHWJeiHfHc-unsplash.jpg","","","","","","","","","","","","","","","","","","","","","","","","","","","","","","","","","","",""
"","rating","","html-slider-response","12","15492","0.0-1.0-9.0","44","50477","1","237","","","","","50","7","27","Stimuli/Experimental_stims/body_parts/heike-mintel-i_Gns0ELnLw-unsplash.jpg","","","","","","","","","","","","","","","","","","","","","","","","","","","","","","","","","","",""
"","rating","","html-slider-response","13","15658","0.0-1.0-10.0","44","50477","1","162","","","","","50","8","37","Stimuli/Experimental_stims/objects/alexander-andrews-VLGWE_SumrA-unsplash.jpg","","","","","","","","","","","","","","","","","","","","","","","","","","","","","","","","","","",""
"","rating","","html-slider-response","14","15823","0.0-1.0-11.0","44","50477","1","161","","","","","50","9","19","Stimuli/Experimental_stims/faces/joel-mott-LaK153ghdig-unsplash.jpg","","","","","","","","","","","","","","","","","","","","","","","","","","","","","","","","","","",""
"","rating","","html-slider-response","15","15988","0.0-1.0-12.0","44","50477","1","160","","","","","50","10","34","Stimuli/Experimental_stims/body_parts/wagner-santos-mBWMvIuVnso-unsplash.jpg","","","","","","","","","","","","","","","","","","","","","","","","","","","","","","","","","","",""
"","rating","","html-slider-response","16","16234","0.0-1.0-13.0","44","50477","1","241","","","","","50","11","22","Stimuli/Experimental_stims/faces/ravi-patel-VMGAbeeJTKo-unsplash.jpg","","","","","","","","","","","","","","","","","","","","","","","","","","","","","","","","","","",""
"","rating","","html-slider-response","17","16415","0.0-1.0-14.0","44","50477","1","176","","","","","50","12","1","Stimuli/Experimental_stims/outdoor_scenes/ashim-d-silva-S2Q5mdOrrVc-unsplash.jpg","","","","","","","","","","","","","","","","","","","","","","","","","","","","","","","","","","",""
"","rating","","html-slider-response","18","16573","0.0-1.0-15.0","44","50477","1","154","","","","","50","13","15","Stimuli/Experimental_stims/faces/erik-lucatero-d2MSDujJl2g-unsplash.jpg","","","","","","","","","","","","","","","","","","","","","","","","","","","","","","","","","","",""
"","rating","","html-slider-response","19","16751","0.0-1.0-16.0","44","50477","1","174","","","","","50","14","17","Stimuli/Experimental_stims/faces/good-faces-xmSWVeGEnJw-unsplash.jpg","","","","","","","","","","","","","","","","","","","","","","","","","","","","","","","","","","",""
"","rating","","html-slider-response","20","16932","0.0-1.0-17.0","44","50477","1","176","","","","","50","15","12","Stimuli/Experimental_stims/faces/aiony-haust-jmATI5Q_YgY-unsplash.jpg","","","","","","","","","","","","","","","","","","","","","","","","","","","","","","","","","","",""
"","rating","","html-slider-response","21","17105","0.0-1.0-18.0","44","50477","1","167","","","","","50","16","0","Stimuli/Experimental_stims/outdoor_scenes/aleksandra-boguslawska-MS7KD9Ti7FQ-unsplash.jpg","","","","","","","","","","","","","","","","","","","","","","","","","","","","","","","","","","",""
"","rating","","html-slider-response","22","17268","0.0-1.0-19.0","44","50477","1","160","","","","","50","17","41","Stimuli/Experimental_stims/objects/insung-yoon-w2JtIQQXoRU-unsplash.jpg","","","","","","","","","","","","","","","","","","","","","","","","","","","","","","","","","","",""
"","rating","","html-slider-response","23","17447","0.0-1.0-20.0","44","50477","1","175","","","","","50","18","18","Stimuli/Experimental_stims/faces/jessica-radanavong-mrYkTuAesKE-unsplash.jpg","","","","","","","","","","","","","","","","","","","","","","","","","","","","","","","","","","",""
"","rating","","html-slider-response","24","17625","0.0-1.0-21.0","44","50477","1","174","","","","","50","19","11","Stimuli/Experimental_stims/outdoor_scenes/stephen-leonardi-gyIRjKPXupE-unsplash.jpg","","","","","","","","","","","","","","","","","","","","","","","","","","","","","","","","","","",""
"","rating","","html-slider-response","25","17791","0.0-1.0-22.0","44","50477","1","161","","","","","50","20","20","Stimuli/Experimental_stims/faces/justin-chen-J7Cf1Gch49E-unsplash.jpg","","","","","","","","","","","","","","","","","","","","","","","","","","","","","","","","","","",""
"","rating","","html-slider-response","26","17977","0.0-1.0-23.0","44","50477","1","180","","","","","50","21","23","Stimuli/Experimental_stims/faces/rikonavt-HQjfrvdTfak-unsplash.jpg","","","","","","","","","","","","","","","","","","","","","","","","","","","","","","","","","","",""
"","rating","","html-slider-response","27","18143","0.0-1.0-24.0","44","50477","1","162","","","","","50","22","25","Stimuli/Experimental_stims/body_parts/engin-akyurt-Q2rfH3GW39c-unsplash.jpg","","","","","","","","","","","","","","","","","","","","","","","","","","","","","","","","","","",""
"","rating","","html-slider-response","28","18306","0.0-1.0-25.0","44","50477","1","160","","","","","50","23","33","Stimuli/Experimental_stims/body_parts/tucker-good-36skLT5jZcc-unsplash.jpg","","","","","","","","","","","","","","","","","","","","","","","","","","","","","","","","","","",""
"","rating","","html-slider-response","29","18488","0.0-1.0-26.0","44","50477","1","178","","","","","50","24","32","Stimuli/Experimental_stims/body_parts/towfiqu-barbhuiya-3AsiVDsZnHg-unsplash.jpg","","","","","","","","","","","","","","","","","","","","","","","","","","","","","","","","","","",""
"","rating","","html-slider-response","30","18666","0.0-1.0-27.0","44","50477","1","173","","","","","50","25","30","Stimuli/Experimental_stims/body_parts/mika-korhonen-Xodzxosar18-unsplash.jpg","","","","","","","","","","","","","","","","","","","","","","","","","","","","","","","","","","",""
"","rating","","html-slider-response","31","18844","0.0-1.0-28.0","44","50477","1","174","","","","","50","26","16","Stimuli/Experimental_stims/faces/freddy-kearney-o-ioeoATbIM-unsplash.jpg","","","","","","","","","","","","","","","","","","","","","","","","","","","","","","","","","","",""
"","rating","","html-slider-response","32","19031","0.0-1.0-29.0","44","50477","1","182","","","","","50","27","14","Stimuli/Experimental_stims/faces/david-siglin-UuW4psOb388-unsplash.jpg","","","","","","","","","","","","","","","","","","","","","","","","","","","","","","","","","","",""
"","rating","","html-slider-response","33","19206","0.0-1.0-30.0","44","50477","1","171","","","","","50","28","36","Stimuli/Experimental_stims/objects/alexander-andrews-JYGnB9gTCls-unsplash.jpg","","","","","","","","","","","","","","","","","","","","","","","","","","","","","","","","","","",""
"","rating","","html-slider-response","34","19404","0.0-1.0-31.0","44","50477","1","193","","","","","50","29","3","Stimuli/Experimental_stims/outdoor_scenes/henry-be-NLF6hTe4PAg-unsplash.jpg","","","","","","","","","","","","","","","","","","","","","","","","","","","","","","","","","","",""
"","rating","","html-slider-response","35","19569","0.0-1.0-32.0","44","50477","1","161","","","","","50","30","29","Stimuli/Experimental_stims/body_parts/manuel-schinner-ZwjFuJ7ebpk-unsplash.jpg","","","","","","","","","","","","","","","","","","","","","","","","","","","","","","","","","","",""
"","rating","","html-slider-response","36","19756","0.0-1.0-33.0","44","50477","1","183","","","","","50","31","43","Stimuli/Experimental_stims/objects/jonathan-greenaway-Y4hGgeiFn3s-unsplash.jpg","","","","","","","","","","","","","","","","","","","","","","","","","","","","","","","","","","",""
"","rating","","html-slider-response","37","19920","0.0-1.0-34.0","44","50477","1","160","","","","","50","32","40","Stimuli/Experimental_stims/objects/fabian-blank-pElSkGRA2NU-unsplash.jpg","","","","","","","","","","","","","","","","","","","","","","","","","","","","","","","","","","",""
"","rating","","html-slider-response","38","20091","0.0-1.0-35.0","44","50477","1","167","","","","","50","33","2","Stimuli/Experimental_stims/outdoor_scenes/bruno-van-der-kraan-qez8mNJ3ilU-unsplash.jpg","","","","","","","","","","","","","","","","","","","","","","","","","","","","","","","","","","",""
"","rating","","html-slider-response","39","20270","0.0-1.0-36.0","44","50477","1","174","","","","","50","34","26","Stimuli/Experimental_stims/body_parts/engin-akyurt-x_3gyC42btc-unsplash.jpg","","","","","","","","","","","","","","","","","","","","","","","","","","","","","","","","","","",""
"","rating","","html-slider-response","40","20457","0.0-1.0-37.0","44","50477","1","181","","","","","50","35","45","Stimuli/Experimental_stims/objects/leohoho-rngTKHXumy0-unsplash.jpg","","","","","","","","","","","","","","","","","","","","","","","","","","","","","","","","","","",""
"","rating","","html-slider-response","41","20643","0.0-1.0-38.0","44","50477","1","180","","","","","50","36","6","Stimuli/Experimental_stims/outdoor_scenes/meng-ji-8BH_M-53CyA-unsplash.jpg","","","","","","","","","","","","","","","","","","","","","","","","","","","","","","","","","","",""
"","rating","","html-slider-response","42","20820","0.0-1.0-39.0","44","50477","1","171","","","","","50","37","13","Stimuli/Experimental_stims/faces/daniel-rigdon-dXmXKPP2L4E-unsplash.jpg","","","","","","","","","","","","","","","","","","","","","","","","","","","","","","","","","","",""
"","rating","","html-slider-response","43","21013","0.0-1.0-40.0","44","50477","1","188","","","","","50","38","44","Stimuli/Experimental_stims/objects/kuiye-chen-NuOGFo4PudE-unsplash.jpg","","","","","","","","","","","","","","","","","","","","","","","","","","","","","","","","","","",""
"","rating","","html-slider-response","44","21217","0.0-1.0-41.0","44","50477","1","199","","","","","50","39","42","Stimuli/Experimental_stims/objects/jess-bailey-nOeVi8DsN8U-unsplash.jpg","","","","","","","","","","","","","","","","","","","","","","","","","","","","","","","","","","",""
"","rating","","html-slider-response","45","21406","0.0-1.0-42.0","44","50477","1","185","","","","","50","40","24","Stimuli/Experimental_stims/body_parts/clay-banks-LjqARJaJotc-unsplash.jpg","","","","","","","","","","","","","","","","","","","","","","","","","","","","","","","","","","",""
"","rating","","html-slider-response","46","21590","0.0-1.0-43.0","44","50477","1","179","","","","","50","41","21","Stimuli/Experimental_stims/faces/leilani-angel-K84vnnzxmTQ-unsplash.jpg","","","","","","","","","","","","","","","","","","","","","","","","","","","","","","","","","","",""
"","rating","","html-slider-response","47","21782","0.0-1.0-44.0","44","50477","1","188","","","","","50","42","7","Stimuli/Experimental_stims/outdoor_scenes/petr-vysohlid-9fqwGqGLUxc-unsplash.jpg","","","","","","","","","","","","","","","","","","","","","","","","","","","","","","","","","","",""
"","rating","","html-slider-response","48","21960","0.0-1.0-45.0","44","50477","1","174","","","","","50","43","46","Stimuli/Experimental_stims/objects/mockup-graphics-PNsj6RiHAF4-unsplash.jpg","","","","","","","","","","","","","","","","","","","","","","","","","","","","","","","","","","",""
"","rating","","html-slider-response","49","22147","0.0-1.0-46.0","44","50477","1","183","","","","","50","44","38","Stimuli/Experimental_stims/objects/art-lasovsky-8XddFc6NkBY-unsplash.jpg","","","","","","","","","","","","","","","","","","","","","","","","","","","","","","","","","","",""
"","rating","","html-slider-response","50","22325","0.0-1.0-47.0","44","50477","1","174","","","","","50","45","8","Stimuli/Experimental_stims/outdoor_scenes/samsommer-vddccTqwal8-unsplash.jpg","","","","","","","","","","","","","","","","","","","","","","","","","","","","","","","","","","",""
"","rating","","html-slider-response","51","22516","0.0-1.0-48.0","44","50477","1","187","","","","","50","46","10","Stimuli/Experimental_stims/outdoor_scenes/shannon-kunkle-dM8INmkyDas-unsplash.jpg","","","","","","","","","","","","","","","","","","","","","","","","","","","","","","","","","","",""
"","rating","","html-slider-response","52","22893","0.0-1.0-49.0","44","50477","1","372","","","","","50","47","39","Stimuli/Experimental_stims/objects/charlesdeluvio-1-nx1QR5dTE-unsplash.jpg","","","","","","","","","","","","","","","","","","","","","","","","","","","","","","","","","","",""
"","deliberation_instructions","","instructions","53","26620","0.0-3.0-0.0-0.0","44","50477","1","3690","","[{""page_index"":0,""viewing_time"":1401},{""page_index"":1,""viewing_time"":211},{""page_index"":2,""viewing_time"":204},{""page_index"":3,""viewing_time"":434},{""page_index"":4,""viewing_time"":477},{""page_index"":5,""viewing_time"":457},{""page_index"":6,""viewing_time"":505}]","","","","","","","","","","","","","","","","","","","","","","","","","","","","","","","","","","","","","","","","",""
"","deliberation_comprehension_check","","survey-multi-choice","54","32243","0.0-3.0-0.0-1.0","44","50477","1","5618","{""Q0"":""True"",""Q1"":""True"",""Q2"":""Wait until an arrow comes up and then select the image the arrow is pointing at"",""Q3"":""Consider carefully and take your time (up to 3 seconds)"",""Q4"":""D""}","","0","","","","","","","","","","","","","","","","","","","","","","","","","","","","","","","","","","","","","","","",""
"","","","html-keyboard-response","55","33162","0.0-3.0-1.0","44","50477","1","915","","","","68","","","","","","","","","","","","","","","","","","","","","","","","","","","","","","","","","","","","","","",""
"","deliberation","","html-keyboard-response","56","34174","0.0-3.0-2.0-0.0","44","50477","1","null","","","","null","","0","","","33162","NaN","NaN","NaN","NaN","NaN","NaN","NaN","NaN","NaN","1","prac1","1","0","","original","1500","0","0","","","","","Stimuli/Practice_stims/Deliberation/anthony-delanoix-Q0-fOL2nqZc-unsplash.jpg","Stimuli/Practice_stims/Deliberation/becca-tapert-sY5RjMB1KkE-unsplash.jpg","","","1000","0","1012","0","","","",""
"","deliberation_no_response","","html-keyboard-response","57","34288","0.0-3.0-2.0-3.0-0.0","44","50477","1","null","","","","null","","0","","","34174","","","","","","","","","","1","","","","","","","0","","","","","","","","","","100","1000","114","1012","1","","",""
"","iti","","html-keyboard-response","58","34400","0.0-3.0-2.0-4.0","44","50477","1","null","","","","null","","0","","","34288","","","","","","","","","","","","","","","","","0","","","","","","","","","","100","1100","112","1126","","100","",""
"","deliberation","","html-keyboard-response","59","36910","0.0-3.0-4.0-0.0","44","50477","1","377","","","","68","","1","","","34400","","","","","","","","","","0","prac2","1","2500","left","scramble","2500","0","0","","","","","Stimuli/Practice_stims/Deliberation/scramble/scrambled_clay-banks-1KPfcPdbWFM-unsplash.jpg","Stimuli/Practice_stims/Deliberation/scramble/scrambled_melissa-keizer-sV4Pd8wq5_o-unsplash.jpg","","","2500","1200","2510","1238","","","",""
"","scramble_prompt","","html-keyboard-response","60","36919","0.0-3.0-4.0-1.0-0.0","44","50477","1","null","","","","null","","1","","","36910","NaN","NaN","NaN","NaN","NaN","","","NaN","NaN","","","","","","","","0","","","","","","","","","","-1500","3700","9","3748","","-1500","0","1"
"","deliberation_no_response","","html-keyboard-response","61","37029","0.0-3.0-4.0-3.0-0.0","44","50477","1","null","","","","null","","1","","","36919","","","","","","","","","","1","","","","","","","0","","","","","","","","","","100","2200","110","3757","1","","",""
"","iti","","html-keyboard-response","62","37142","0.0-3.0-4.0-4.0","44","50477","1","null","","","","null","","1","","","37029","","","","","","","","","","","","","","","","","0","","","","","","","","","","100","2300","113","3867","","100","",""
"","deliberation","","html-keyboard-response","63","38656","0.0-3.0-6.0-0.0","44","50477","1","3","","","","68","","2","","","37142","","","","","","","","","","0","prac3","1","1500","right","scramble","3000","0","0","","","","","Stimuli/Practice_stims/Deliberation/scramble/scrambled_anthony-delanoix-Q0-fOL2nqZc-unsplash.jpg","Stimuli/Practice_stims/Deliberation/scramble/scrambled_becca-tapert-sY5RjMB1KkE-unsplash.jpg","","","1500","2400","1514","3980","","","",""
"","scramble_prompt","","html-keyboard-response","64","38666","0.0-3.0-6.0-1.0-0.0","44","50477","1","null","","","","null","","2","","","38656","NaN","NaN","NaN","NaN","NaN","","","NaN","NaN","","","","","","","","0","","","","","","","","","","-500","3900","10","5494","","-500","0","1"
"","deliberation_no_response","","html-keyboard-response","65","38774","0.0-3.0-6.0-3.0-0.0","44","50477","1","null","","","","null","","2","","","38666","","","","","","","","","","1","","","","","","","0","","","","","","","","","","100","3400","108","5504","1","","",""
"","iti","","html-keyboard-response","66","38886","0.0-3.0-6.0-4.0","44","50477","1","null","","","","null","","2","","","38774","","","","","","","","","","","","","","","","","0","","","","","","","","","","100","3500","112","5612","","100","",""
"","deliberation","","html-keyboard-response","67","38917","0.0-3.0-8.0-0.0","44","50477","1","27","","","","68","","3","","","38886","1","","","","","","","Stimuli/Practice_stims/Deliberation/clay-banks-1KPfcPdbWFM-unsplash.jpg","Stimuli/Practice_stims/Deliberation/melissa-keizer-sV4Pd8wq5_o-unsplash.jpg","0","prac4","1","0","","original","2000","0","0","","","","","Stimuli/Practice_stims/Deliberation/clay-banks-1KPfcPdbWFM-unsplash.jpg","Stimuli/Practice_stims/Deliberation/melissa-keizer-sV4Pd8wq5_o-unsplash.jpg","","","27","3600","31","5724","","","",""
"","deliberation_confirmation","","html-keyboard-response","68","39901","0.0-3.0-8.0-2.0-0.0","44","50477","1","null","","","","null","","3","","","38917","","","","","","","","","","","","","","","","","0","","","","","","","","","","973","3627","984","5755","","973","",""
"","iti","","html-keyboard-response","69","40006","0.0-3.0-8.0-4.0","44","50477","1","null","","","","null","","3","","","39901","","","","","","","","","","","","","","","","","0","","","","","","","","","","100","4600","105","6739","","100","",""
"","practice_over","","html-keyboard-response","70","40235","0.0-3.0-8.0-5.0-0.0","44","50477","1","226","","","","68","","","","","","","","","","","","","","","","","","","","","","","","","","","","","","","","","","","","","","",""
"","start_run","","html-keyboard-response","71","41341","0.0-3.0-8.0-5.0-1.0","44","50477","1","1103","","","","84","","","","","","","","","","","","","","","","","","","","","","","","","","","","","","","","","","","","","","",""
"","deliberation","","html-keyboard-response","72","42854","0.0-3.0-10.0-0.0","44","50477","1","235","","","","68","","4","","","41341","","","","","","","","","","0","C","0","1500","right","scramble","3500","1","1","8","30","outdoor_scenes","body_parts","Stimuli/Experimental_stims/scramble/outdoor_scenes/scrambled_samsommer-vddccTqwal8-unsplash.jpg","Stimuli/Experimental_stims/scramble/body_parts/scrambled_mika-korhonen-Xodzxosar18-unsplash.jpg","NaN","NaN","1500","0","1513","0","","","",""
"","scramble_prompt","","html-keyboard-response","73","42860","0.0-3.0-10.0-1.0-0.0","44","50477","1","null","","","","null","","4","","","42854","NaN","NaN","NaN","NaN","NaN","","","NaN","NaN","","","","","","","","1","","","","","","","","","","-500","1500","6","1513","","-500","0","1"
"","deliberation_no_response","","html-keyboard-response","74","42967","0.0-3.0-10.0-3.0-0.0","44","50477","1","null","","","","null","","4","","","42860","","","","","","","","","","1","","","","","","","1","","","","","","","","","","100","1000","107","1519","1","","",""
"","iti","","html-keyboard-response","75","43077","0.0-3.0-10.0-4.0","44","50477","1","null","","","","null","","4","","","42967","","","","","","","","","","","","","","","","","1","","","","","","","","","","100","1100","110","1626","","100","",""
"","deliberation","","html-keyboard-response","76","44391","0.0-3.0-12.0-0.0","44","50477","1","160","","","","68","","5","","","43077","","","","","","","","","","0","J","0","1300","right","scramble","2700","1","1","16","45","faces","objects","Stimuli/Experimental_stims/scramble/faces/scrambled_freddy-kearney-o-ioeoATbIM-unsplash.jpg","Stimuli/Experimental_stims/scramble/objects/scrambled_leohoho-rngTKHXumy0-unsplash.jpg","NaN","NaN","1300","1200","1314","1736","","","",""
"","scramble_prompt","","html-keyboard-response","77","44400","0.0-3.0-12.0-1.0-0.0","44","50477","1","null","","","","null","","5","","","44391","NaN","NaN","NaN","NaN","NaN","","","NaN","NaN","","","","","","","","1","","","","","","","","","","-300","2500","9","3050","","-300","0","1"
"","deliberation_no_response","","html-keyboard-response","78","44510","0.0-3.0-12.0-3.0-0.0","44","50477","1","null","","","","null","","5","","","44400","","","","","","","","","","1","","","","","","","1","","","","","","","","","","100","2200","110","3059","1","","",""
"","iti","","html-keyboard-response","79","44621","0.0-3.0-12.0-4.0","44","50477","1","null","","","","null","","5","","","44510","","","","","","","","","","","","","","","","","1","","","","","","","","","","100","2300","111","3169","","100","",""
"","deliberation","","html-keyboard-response","80","44708","0.0-3.0-14.0-0.0","44","50477","1","83","","","","68","","6","","","44621","1","46","34","objects","body_parts","50","50","Stimuli/Experimental_stims/objects/mockup-graphics-PNsj6RiHAF4-unsplash.jpg","Stimuli/Experimental_stims/body_parts/wagner-santos-mBWMvIuVnso-unsplash.jpg","0","E","0","0","","original","1000","1","1","46","34","objects","body_parts","Stimuli/Experimental_stims/objects/mockup-graphics-PNsj6RiHAF4-unsplash.jpg","Stimuli/Experimental_stims/body_parts/wagner-santos-mBWMvIuVnso-unsplash.jpg","50","50","83","2400","87","3280","","","",""
"","deliberation_confirmation","","html-keyboard-response","81","45639","0.0-3.0-14.0-2.0-0.0","44","50477","1","null","","","","null","","6","","","44708","","","","","","","","","","","","","","","","","1","","","","","","","","","","917","2483","931","3367","","917","",""
"","iti","","html-keyboard-response","82","45749","0.0-3.0-14.0-4.0","44","50477","1","null","","","","null","","6","","","45639","","","","","","","","","","","","","","","","","1","","","","","","","","","","100","3400","110","4298","","100","",""
"","deliberation","","html-keyboard-response","83","47360","0.0-3.0-16.0-0.0","44","50477","1","56","","","","68","","7","","","45749","","","","","","","","","","0","I","0","1600","left","scramble","2800","1","1","27","4","body_parts","outdoor_scenes","Stimuli/Experimental_stims/scramble/body_parts/scrambled_heike-mintel-i_Gns0ELnLw-unsplash.jpg","Stimuli/Experimental_stims/scramble/outdoor_scenes/scrambled_jarrett-kow-1ZOyYPOBn7I-unsplash.jpg","NaN","NaN","1600","3500","1611","4408","","","",""
"","scramble_prompt","","html-keyboard-response","84","47366","0.0-3.0-16.0-1.0-0.0","44","50477","1","null","","","","null","","7","","","47360","NaN","NaN","NaN","NaN","NaN","","","NaN","NaN","","","","","","","","1","","","","","","","","","","-600","5100","6","6019","","-600","0","1"
"","deliberation_no_response","","html-keyboard-response","85","47470","0.0-3.0-16.0-3.0-0.0","44","50477","1","null","","","","null","","7","","","47366","","","","","","","","","","1","","","","","","","1","","","","","","","","","","100","4500","104","6025","1","","",""
"","iti","","html-keyboard-response","86","47581","0.0-3.0-16.0-4.0","44","50477","1","null","","","","null","","7","","","47470","","","","","","","","","","","","","","","","","1","","","","","","","","","","100","4600","111","6129","","100","",""
"","deliberation","","html-keyboard-response","87","47666","0.0-3.0-18.0-0.0","44","50477","1","81","","","","75","","8","","","47581","0","17","29","faces","body_parts","50","50","Stimuli/Experimental_stims/faces/good-faces-xmSWVeGEnJw-unsplash.jpg","Stimuli/Experimental_stims/body_parts/manuel-schinner-ZwjFuJ7ebpk-unsplash.jpg","0","L","0","0","","original","1000","1","1","29","17","body_parts","faces","Stimuli/Experimental_stims/body_parts/manuel-schinner-ZwjFuJ7ebpk-unsplash.jpg","Stimuli/Experimental_stims/faces/good-faces-xmSWVeGEnJw-unsplash.jpg","50","50","81","4700","85","6240","","","",""
"","deliberation_confirmation","","html-keyboard-response","88","48597","0.0-3.0-18.0-2.0-0.0","44","50477","1","null","","","","null","","8","","","47666","","","","","","","","","","","","","","","","","1","","","","","","","","","","919","4781","931","6325","","919","",""
"","iti","","html-keyboard-response","89","48708","0.0-3.0-18.0-4.0","44","50477","1","null","","","","null","","8","","","48597","","","","","","","","","","","","","","","","","1","","","","","","","","","","100","5700","111","7256","","100","",""
"","deliberation","","html-keyboard-response","90","48963","0.0-3.0-20.0-0.0","44","50477","1","251","","","","75","","9","","","48708","0","7","22","outdoor_scenes","faces","50","50","Stimuli/Experimental_stims/outdoor_scenes/petr-vysohlid-9fqwGqGLUxc-unsplash.jpg","Stimuli/Experimental_stims/faces/ravi-patel-VMGAbeeJTKo-unsplash.jpg","0","H","0","0","","original","1600","1","1","22","7","faces","outdoor_scenes","Stimuli/Experimental_stims/faces/ravi-patel-VMGAbeeJTKo-unsplash.jpg","Stimuli/Experimental_stims/outdoor_scenes/petr-vysohlid-9fqwGqGLUxc-unsplash.jpg","50","50","251","5800","255","7367","","","",""
"","deliberation_confirmation","","html-keyboard-response","91","49728","0.0-3.0-20.0-2.0-0.0","44","50477","1","null","","","","null","","9","","","48963","","","","","","","","","","","","","","","","","1","","","","","","","","","","749","6051","765","7622","","749","",""
"","iti","","html-keyboard-response","92","49839","0.0-3.0-20.0-4.0","44","50477","1","null","","","","null","","9","","","49728","","","","","","","","","","","","","","","","","1","","","","","","","","","","100","6800","111","8387","","100","",""
"","deliberation","","html-keyboard-response","93","51854","0.0-3.0-22.0-0.0","44","50477","1","134","","","","75","","10","","","49839","","","","","","","","","","0","H","0","2000","right","scramble","2900","1","1","22","7","faces","outdoor_scenes","Stimuli/Experimental_stims/scramble/faces/scrambled_ravi-patel-VMGAbeeJTKo-unsplash.jpg","Stimuli/Experimental_stims/scramble/outdoor_scenes/scrambled_petr-vysohlid-9fqwGqGLUxc-unsplash.jpg","NaN","NaN","2000","6900","2015","8498","","","",""
"","scramble_prompt","","html-keyboard-response","94","51860","0.0-3.0-22.0-1.0-0.0","44","50477","1","null","","","","null","","10","","","51854","NaN","NaN","NaN","NaN","NaN","","","NaN","NaN","","","","","","","","1","","","","","","","","","","-1000","8900","6","10513","","-1000","0","1"
"","deliberation_no_response","","html-keyboard-response","95","51977","0.0-3.0-22.0-3.0-0.0","44","50477","1","null","","","","null","","10","","","51860","","","","","","","","","","1","","","","","","","1","","","","","","","","","","100","7900","117","10519","1","","",""
"","iti","","html-keyboard-response","96","52087","0.0-3.0-22.0-4.0","44","50477","1","null","","","","null","","10","","","51977","","","","","","","","","","","","","","","","","1","","","","","","","","","","100","8000","110","10636","","100","",""
"","deliberation","","html-keyboard-response","97","52203","0.0-3.0-24.0-0.0","44","50477","1","113","","","","75","","11","","","52087","0","35","14","body_parts","faces","50","50","Stimuli/Experimental_stims/body_parts/wc-so-KH4AAPjb-tI-unsplash.jpg","Stimuli/Experimental_stims/faces/david-siglin-UuW4psOb388-unsplash.jpg","0","F","0","0","","original","1200","1","1","14","35","faces","body_parts","Stimuli/Experimental_stims/faces/david-siglin-UuW4psOb388-unsplash.jpg","Stimuli/Experimental_stims/body_parts/wc-so-KH4AAPjb-tI-unsplash.jpg","50","50","113","8100","116","10746","","","",""
"","deliberation_confirmation","","html-keyboard-response","98","53104","0.0-3.0-24.0-2.0-0.0","44","50477","1","null","","","","null","","11","","","52203","","","","","","","","","","","","","","","","","1","","","","","","","","","","887","8213","901","10862","","887","",""
"","iti","","html-keyboard-response","99","53211","0.0-3.0-24.0-4.0","44","50477","1","null","","","","null","","11","","","53104","","","","","","","","","","","","","","","","","1","","","","","","","","","","100","9100","107","11763","","100","",""
"","deliberation","","html-keyboard-response","100","54727","0.0-3.0-26.0-0.0","44","50477","1","238","","","","75","","12","","","53211","","","","","","","","","","0","B","0","1500","right","scramble","1100","1","1","11","15","outdoor_scenes","faces","Stimuli/Experimental_stims/scramble/outdoor_scenes/scrambled_stephen-leonardi-gyIRjKPXupE-unsplash.jpg","Stimuli/Experimental_stims/scramble/faces/scrambled_erik-lucatero-d2MSDujJl2g-unsplash.jpg","NaN","NaN","1500","9200","1516","11870","","","",""
"","scramble_prompt","","html-keyboard-response","101","54733","0.0-3.0-26.0-1.0-0.0","44","50477","1","null","","","","null","","12","","","54727","NaN","NaN","NaN","NaN","NaN","","","NaN","NaN","","","","","","","","1","","","","","","","","","","-500","10700","6","13386","","-500","0","1"
"","deliberation_no_response","","html-keyboard-response","102","54844","0.0-3.0-26.0-3.0-0.0","44","50477","1","null","","","","null","","12","","","54733","","","","","","","","","","1","","","","","","","1","","","","","","","","","","100","10200","111","13392","1","","",""
"","iti","","html-keyboard-response","103","54960","0.0-3.0-26.0-4.0","44","50477","1","null","","","","null","","12","","","54844","","","","","","","","","","","","","","","","","1","","","","","","","","","","100","10300","116","13503","","100","",""
"","deliberation","","html-keyboard-response","104","55151","0.0-3.0-28.0-0.0","44","50477","1","189","","","","75","","13","","","54960","0","4","27","outdoor_scenes","body_parts","50","50","Stimuli/Experimental_stims/outdoor_scenes/jarrett-kow-1ZOyYPOBn7I-unsplash.jpg","Stimuli/Experimental_stims/body_parts/heike-mintel-i_Gns0ELnLw-unsplash.jpg","0","I","0","0","","original","2500","1","1","27","4","body_parts","outdoor_scenes","Stimuli/Experimental_stims/body_parts/heike-mintel-i_Gns0ELnLw-unsplash.jpg","Stimuli/Experimental_stims/outdoor_scenes/jarrett-kow-1ZOyYPOBn7I-unsplash.jpg","50","50","189","10400","191","13619","","","",""
"","deliberation_confirmation","","html-keyboard-response","105","55971","0.0-3.0-28.0-2.0-0.0","44","50477","1","null","","","","null","","13","","","55151","","","","","","","","","","","","","","","","","1","","","","","","","","","","811","10589","820","13810","","811","",""
"","iti","","html-keyboard-response","106","56087","0.0-3.0-28.0-4.0","44","50477","1","null","","","","null","","13","","","55971","","","","","","","","","","","","","","","","","1","","","","","","","","","","100","11400","116","14630","","100","",""
"","deliberation","","html-keyboard-response","107","57903","0.0-3.0-30.0-0.0","44","50477","1","227","","","","75","","14","","","56087","","","","","","","","","","0","K","0","1800","left","scramble","1100","1","1","32","43","body_parts","objects","Stimuli/Experimental_stims/scramble/body_parts/scrambled_towfiqu-barbhuiya-3AsiVDsZnHg-unsplash.jpg","Stimuli/Experimental_stims/scramble/objects/scrambled_jonathan-greenaway-Y4hGgeiFn3s-unsplash.jpg","NaN","NaN","1800","11500","1816","14746","","","",""
"","scramble_prompt","","html-keyboard-response","108","57908","0.0-3.0-30.0-1.0-0.0","44","50477","1","null","","","","null","","14","","","57903","NaN","NaN","NaN","NaN","NaN","","","NaN","NaN","","","","","","","","1","","","","","","","","","","-800","13300","5","16562","","-800","0","1"
"","deliberation_no_response","","html-keyboard-response","109","58025","0.0-3.0-30.0-3.0-0.0","44","50477","1","null","","","","null","","14","","","57908","","","","","","","","","","1","","","","","","","1","","","","","","","","","","100","12500","117","16567","1","","",""
"","iti","","html-keyboard-response","110","58138","0.0-3.0-30.0-4.0","44","50477","1","null","","","","null","","14","","","58025","","","","","","","","","","","","","","","","","1","","","","","","","","","","100","12600","113","16684","","100","",""
"","deliberation","","html-keyboard-response","111","58241","0.0-3.0-32.0-0.0","44","50477","1","99","","","","75","","15","","","58138","0","45","16","objects","faces","50","50","Stimuli/Experimental_stims/objects/leohoho-rngTKHXumy0-unsplash.jpg","Stimuli/Experimental_stims/faces/freddy-kearney-o-ioeoATbIM-unsplash.jpg","0","J","0","0","","original","1500","1","1","16","45","faces","objects","Stimuli/Experimental_stims/faces/freddy-kearney-o-ioeoATbIM-unsplash.jpg","Stimuli/Experimental_stims/objects/leohoho-rngTKHXumy0-unsplash.jpg","50","50","99","12700","103","16797","","","",""
"","deliberation_confirmation","","html-keyboard-response","112","59160","0.0-3.0-32.0-2.0-0.0","44","50477","1","null","","","","null","","15","","","58241","","","","","","","","","","","","","","","","","1","","","","","","","","","","901","12799","919","16900","","901","",""
"","iti","","html-keyboard-response","113","59273","0.0-3.0-32.0-4.0","44","50477","1","null","","","","null","","15","","","59160","","","","","","","","","","","","","","","","","1","","","","","","","","","","100","13700","113","17819","","100","",""
"","deliberation","","html-keyboard-response","114","60585","0.0-3.0-34.0-0.0","44","50477","1","65","","","","75","","16","","","59273","","","","","","","","","","0","E","0","1300","right","scramble","1800","1","1","46","34","objects","body_parts","Stimuli/Experimental_stims/scramble/objects/scrambled_mockup-graphics-PNsj6RiHAF4-unsplash.jpg","Stimuli/Experimental_stims/scramble/body_parts/scrambled_wagner-santos-mBWMvIuVnso-unsplash.jpg","NaN","NaN","1300","13800","1312","17932","","","",""
"","scramble_prompt","","html-keyboard-response","115","60591","0.0-3.0-34.0-1.0-0.0","44","50477","1","null","","","","null","","16","","","60585","NaN","NaN","NaN","NaN","NaN","","","NaN","NaN","","","","","","","","1","","","","","","","","","","-300","15100","6","19244","","-300","0","1"
"","deliberation_no_response","","html-keyboard-response","116","60701","0.0-3.0-34.0-3.0-0.0","44","50477","1","null","","","","null","","16","","","60591","","","","","","","","","","1","","","","","","","1","","","","","","","","","","100","14800","110","19250","1","","",""
"","iti","","html-keyboard-response","117","60816","0.0-3.0-34.0-4.0","44","50477","1","null","","","","null","","16","","","60701","","","","","","","","","","","","","","","","","1","","","","","","","","","","100","14900","115","19360","","100","",""
"","deliberation","","html-keyboard-response","118","61028","0.0-3.0-36.0-0.0","44","50477","1","208","","","","75","","17","","","60816","0","15","11","faces","outdoor_scenes","50","50","Stimuli/Experimental_stims/faces/erik-lucatero-d2MSDujJl2g-unsplash.jpg","Stimuli/Experimental_stims/outdoor_scenes/stephen-leonardi-gyIRjKPXupE-unsplash.jpg","0","B","0","0","","original","3600","1","1","11","15","outdoor_scenes","faces","Stimuli/Experimental_stims/outdoor_scenes/stephen-leonardi-gyIRjKPXupE-unsplash.jpg","Stimuli/Experimental_stims/faces/erik-lucatero-d2MSDujJl2g-unsplash.jpg","50","50","208","15000","212","19475","","","",""
"","deliberation_confirmation","","html-keyboard-response","119","61833","0.0-3.0-36.0-2.0-0.0","44","50477","1","null","","","","null","","17","","","61028","","","","","","","","","","","","","","","","","1","","","","","","","","","","792","15208","805","19687","","792","",""
"","iti","","html-keyboard-response","120","61940","0.0-3.0-36.0-4.0","44","50477","1","null","","","","null","","17","","","61833","","","","","","","","","","","","","","","","","1","","","","","","","","","","100","16000","107","20492","","100","",""
"","deliberation","","html-keyboard-response","121","63854","0.0-3.0-38.0-0.0","44","50477","1","208","","","","75","","18","","","61940","","","","","","","","","","0","A","0","1900","left","scramble","1300","1","1","0","40","outdoor_scenes","objects","Stimuli/Experimental_stims/scramble/outdoor_scenes/scrambled_aleksandra-boguslawska-MS7KD9Ti7FQ-unsplash.jpg","Stimuli/Experimental_stims/scramble/objects/scrambled_fabian-blank-pElSkGRA2NU-unsplash.jpg","NaN","NaN","1900","16100","1914","20599","","","",""
"","scramble_prompt","","html-keyboard-response","122","63861","0.0-3.0-38.0-1.0-0.0","44","50477","1","null","","","","null","","18","","","63854","NaN","NaN","NaN","NaN","NaN","","","NaN","NaN","","","","","","","","1","","","","","","","","","","-900","18000","7","22513","","-900","0","1"
"","deliberation_no_response","","html-keyboard-response","123","63974","0.0-3.0-38.0-3.0-0.0","44","50477","1","null","","","","null","","18","","","63861","","","","","","","","","","1","","","","","","","1","","","","","","","","","","100","17100","113","22520","1","","",""
"","iti","","html-keyboard-response","124","64085","0.0-3.0-38.0-4.0","44","50477","1","null","","","","null","","18","","","63974","","","","","","","","","","","","","","","","","1","","","","","","","","","","100","17200","111","22633","","100","",""
"","deliberation","","html-keyboard-response","125","64093","0.0-3.0-40.0-0.0","44","50477","1","3","","","","75","","19","","","64085","0","30","8","body_parts","outdoor_scenes","50","50","Stimuli/Experimental_stims/body_parts/mika-korhonen-Xodzxosar18-unsplash.jpg","Stimuli/Experimental_stims/outdoor_scenes/samsommer-vddccTqwal8-unsplash.jpg","0","C","0","0","","original","1900","1","1","8","30","outdoor_scenes","body_parts","Stimuli/Experimental_stims/outdoor_scenes/samsommer-vddccTqwal8-unsplash.jpg","Stimuli/Experimental_stims/body_parts/mika-korhonen-Xodzxosar18-unsplash.jpg","50","50","3","17300","8","22744","","","",""
"","deliberation_confirmation","","html-keyboard-response","126","65104","0.0-3.0-40.0-2.0-0.0","44","50477","1","null","","","","null","","19","","","64093","","","","","","","","","","","","","","","","","1","","","","","","","","","","997","17303","1011","22752","","997","",""
"","iti","","html-keyboard-response","127","65216","0.0-3.0-40.0-4.0","44","50477","1","null","","","","null","","19","","","65104","","","","","","","","","","","","","","","","","1","","","","","","","","","","100","18300","112","23763","","100","",""
"","deliberation","","html-keyboard-response","128","65925","0.0-3.0-42.0-0.0","44","50477","1","37","","","","75","","20","","","65216","","","","","","","","","","0","L","0","700","left","scramble","1400","1","1","29","17","body_parts","faces","Stimuli/Experimental_stims/scramble/body_parts/scrambled_manuel-schinner-ZwjFuJ7ebpk-unsplash.jpg","Stimuli/Experimental_stims/scramble/faces/scrambled_good-faces-xmSWVeGEnJw-unsplash.jpg","NaN","NaN","700","18400","709","23875","","","",""
"","scramble_prompt","","html-keyboard-response","129","66009","0.0-3.0-42.0-1.0-0.0","44","50477","1","80","","","","75","","20","","","65925","0","17","29","faces","body_parts","","","Stimuli/Experimental_stims/scramble/faces/scrambled_good-faces-xmSWVeGEnJw-unsplash.jpg","Stimuli/Experimental_stims/scramble/body_parts/scrambled_manuel-schinner-ZwjFuJ7ebpk-unsplash.jpg","0","","","","","","","1","","","","","","","","","","80","19100","84","24584","","300","0",""
"","deliberation_confirmation","","html-keyboard-response","130","66241","0.0-3.0-42.0-2.0-0.0","44","50477","1","null","","","","null","","20","","","66009","","","","","","","","","","","","","","","","","1","","","","","","","","","","220","19180","232","24668","","220","",""
"","iti","","html-keyboard-response","131","66349","0.0-3.0-42.0-4.0","44","50477","1","null","","","","null","","20","","","66241","","","","","","","","","","","","","","","","","1","","","","","","","","","","100","19400","108","24900","","100","",""
"","deliberation","","html-keyboard-response","132","67456","0.0-3.0-44.0-0.0","44","50477","1","323","","","","75","","21","","","66349","","","","","","","","","","0","F","0","1100","left","scramble","1200","1","1","14","35","faces","body_parts","Stimuli/Experimental_stims/scramble/faces/scrambled_david-siglin-UuW4psOb388-unsplash.jpg","Stimuli/Experimental_stims/scramble/body_parts/scrambled_wc-so-KH4AAPjb-tI-unsplash.jpg","NaN","NaN","1100","19500","1107","25008","","","",""
"","scramble_prompt","","html-keyboard-response","133","67461","0.0-3.0-44.0-1.0-0.0","44","50477","1","null","","","","null","","21","","","67456","NaN","NaN","NaN","NaN","NaN","","","NaN","NaN","","","","","","","","1","","","","","","","","","","-100","20600","5","26115","","-100","0","1"
"","deliberation_no_response","","html-keyboard-response","134","67568","0.0-3.0-44.0-3.0-0.0","44","50477","1","null","","","","null","","21","","","67461","","","","","","","","","","1","","","","","","","1","","","","","","","","","","100","20500","107","26120","1","","",""
"","iti","","html-keyboard-response","135","67678","0.0-3.0-44.0-4.0","44","50477","1","null","","","","null","","21","","","67568","","","","","","","","","","","","","","","","","1","","","","","","","","","","100","20600","110","26227","","100","",""
"","deliberation","","html-keyboard-response","136","67720","0.0-3.0-46.0-0.0","44","50477","1","39","","","","75","","22","","","67678","0","43","32","objects","body_parts","50","50","Stimuli/Experimental_stims/objects/jonathan-greenaway-Y4hGgeiFn3s-unsplash.jpg","Stimuli/Experimental_stims/body_parts/towfiqu-barbhuiya-3AsiVDsZnHg-unsplash.jpg","0","K","0","0","","original","2200","1","1","32","43","body_parts","objects","Stimuli/Experimental_stims/body_parts/towfiqu-barbhuiya-3AsiVDsZnHg-unsplash.jpg","Stimuli/Experimental_stims/objects/jonathan-greenaway-Y4hGgeiFn3s-unsplash.jpg","50","50","39","20700","42","26337","","","",""
"","deliberation_confirmation","","html-keyboard-response","137","68697","0.0-3.0-46.0-2.0-0.0","44","50477","1","null","","","","null","","22","","","67720","","","","","","","","","","","","","","","","","1","","","","","","","","","","961","20739","977","26379","","961","",""
"","iti","","html-keyboard-response","138","68807","0.0-3.0-46.0-4.0","44","50477","1","null","","","","null","","22","","","68697","","","","","","","","","","","","","","","","","1","","","","","","","","","","100","21700","110","27356","","100","",""
"","deliberation","","html-keyboard-response","139","68810","0.0-3.0-48.0-0.0","44","50477","1","0","","","","75","","23","","","68807","0","19","44","faces","objects","50","50","Stimuli/Experimental_stims/faces/joel-mott-LaK153ghdig-unsplash.jpg","Stimuli/Experimental_stims/objects/kuiye-chen-NuOGFo4PudE-unsplash.jpg","0","D","0","0","","original","1300","1","1","44","19","objects","faces","Stimuli/Experimental_stims/objects/kuiye-chen-NuOGFo4PudE-unsplash.jpg","Stimuli/Experimental_stims/faces/joel-mott-LaK153ghdig-unsplash.jpg","50","50","0","21800","3","27466","","","",""
"","deliberation_confirmation","","html-keyboard-response","140","69823","0.0-3.0-48.0-2.0-0.0","44","50477","1","null","","","","null","","23","","","68810","","","","","","","","","","","","","","","","","1","","","","","","","","","","1000","21800","1013","27469","","1000","",""
"","iti","","html-keyboard-response","141","69936","0.0-3.0-48.0-4.0","44","50477","1","null","","","","null","","23","","","69823","","","","","","","","","","","","","","","","","1","","","","","","","","","","100","22800","113","28482","","100","",""
"","deliberation","","html-keyboard-response","142","70952","0.0-3.0-50.0-0.0","44","50477","1","130","","","","75","","24","","","69936","","","","","","","","","","0","G","0","1000","left","scramble","1300","1","1","36","1","objects","outdoor_scenes","Stimuli/Experimental_stims/scramble/objects/scrambled_alexander-andrews-JYGnB9gTCls-unsplash.jpg","Stimuli/Experimental_stims/scramble/outdoor_scenes/scrambled_ashim-d-silva-S2Q5mdOrrVc-unsplash.jpg","NaN","NaN","1000","22900","1016","28595","","","",""
"","scramble_prompt","","html-keyboard-response","143","70958","0.0-3.0-50.0-1.0-0.0","44","50477","1","null","","","","null","","24","","","70952","NaN","NaN","NaN","NaN","NaN","","","NaN","NaN","","","","","","","","1","","","","","","","","","","0","23900","6","29611","","0","0","1"
"","deliberation_no_response","","html-keyboard-response","144","71068","0.0-3.0-50.0-3.0-0.0","44","50477","1","null","","","","null","","24","","","70958","","","","","","","","","","1","","","","","","","1","","","","","","","","","","100","23900","110","29617","1","","",""
"","iti","","html-keyboard-response","145","71185","0.0-3.0-50.0-4.0","44","50477","1","null","","","","null","","24","","","71068","","","","","","","","","","","","","","","","","1","","","","","","","","","","100","24000","117","29727","","100","",""
"","deliberation","","html-keyboard-response","146","72495","0.0-3.0-52.0-0.0","44","50477","1","137","","","","75","","25","","","71185","","","","","","","","","","0","D","0","1300","right","scramble","2400","1","1","44","19","objects","faces","Stimuli/Experimental_stims/scramble/objects/scrambled_kuiye-chen-NuOGFo4PudE-unsplash.jpg","Stimuli/Experimental_stims/scramble/faces/scrambled_joel-mott-LaK153ghdig-unsplash.jpg","NaN","NaN","1300","24100","1310","29844","","","",""
"","scramble_prompt","","html-keyboard-response","147","72505","0.0-3.0-52.0-1.0-0.0","44","50477","1","null","","","","null","","25","","","72495","NaN","NaN","NaN","NaN","NaN","","","NaN","NaN","","","","","","","","1","","","","","","","","","","-300","25400","10","31154","","-300","0","1"
"","deliberation_no_response","","html-keyboard-response","148","72613","0.0-3.0-52.0-3.0-0.0","44","50477","1","null","","","","null","","25","","","72505","","","","","","","","","","1","","","","","","","1","","","","","","","","","","100","25100","108","31164","1","","",""
"","iti","","html-keyboard-response","149","72729","0.0-3.0-52.0-4.0","44","50477","1","null","","","","null","","25","","","72613","","","","","","","","","","","","","","","","","1","","","","","","","","","","100","25200","116","31272","","100","",""
"","deliberation","","html-keyboard-response","150","72800","0.0-3.0-54.0-0.0","44","50477","1","66","","","","75","","26","","","72729","0","1","36","outdoor_scenes","objects","50","50","Stimuli/Experimental_stims/outdoor_scenes/ashim-d-silva-S2Q5mdOrrVc-unsplash.jpg","Stimuli/Experimental_stims/objects/alexander-andrews-JYGnB9gTCls-unsplash.jpg","0","G","0","0","","original","2900","1","1","36","1","objects","outdoor_scenes","Stimuli/Experimental_stims/objects/alexander-andrews-JYGnB9gTCls-unsplash.jpg","Stimuli/Experimental_stims/outdoor_scenes/ashim-d-silva-S2Q5mdOrrVc-unsplash.jpg","50","50","66","25300","71","31388","","","",""
"","deliberation_confirmation","","html-keyboard-response","151","73744","0.0-3.0-54.0-2.0-0.0","44","50477","1","null","","","","null","","26","","","72800","","","","","","","","","","","","","","","","","1","","","","","","","","","","934","25366","944","31459","","934","",""
"","iti","","html-keyboard-response","152","73857","0.0-3.0-54.0-4.0","44","50477","1","null","","","","null","","26","","","73744","","","","","","","","","","","","","","","","","1","","","","","","","","","","100","26300","113","32403","","100","",""
"","deliberation","","html-keyboard-response","153","74019","0.0-3.0-56.0-0.0","44","50477","1","158","","","","75","","27","","","73857","0","40","0","objects","outdoor_scenes","50","50","Stimuli/Experimental_stims/objects/fabian-blank-pElSkGRA2NU-unsplash.jpg","Stimuli/Experimental_stims/outdoor_scenes/aleksandra-boguslawska-MS7KD9Ti7FQ-unsplash.jpg","0","A","0","0","","original","1000","1","1","0","40","outdoor_scenes","objects","Stimuli/Experimental_stims/outdoor_scenes/aleksandra-boguslawska-MS7KD9Ti7FQ-unsplash.jpg","Stimuli/Experimental_stims/objects/fabian-blank-pElSkGRA2NU-unsplash.jpg","50","50","158","26400","162","32516","","","",""
"","deliberation_confirmation","","html-keyboard-response","154","74871","0.0-3.0-56.0-2.0-0.0","44","50477","1","null","","","","null","","27","","","74019","","","","","","","","","","","","","","","","","1","","","","","","","","","","842","26558","852","32678","","842","",""
"","iti","","html-keyboard-response","155","74976","0.0-3.0-56.0-4.0","44","50477","1","null","","","","null","","27","","","74871","","","","","","","","","","","","","","","","","1","","","","","","","","","","100","27400","105","33530","","100","",""
"","deliberation","","html-keyboard-response","156","75684","0.0-3.0-58.0-0.0","44","50477","1","143","","","","75","","28","","","74976","","","","","","","","","","0","H","0","700","left","scramble","1800","2","1","22","7","faces","outdoor_scenes","Stimuli/Experimental_stims/scramble/faces/scrambled_ravi-patel-VMGAbeeJTKo-unsplash.jpg","Stimuli/Experimental_stims/scramble/outdoor_scenes/scrambled_petr-vysohlid-9fqwGqGLUxc-unsplash.jpg","NaN","NaN","700","27500","708","33635","","","",""
"","scramble_prompt","","html-keyboard-response","157","75698","0.0-3.0-58.0-1.0-0.0","44","50477","1","10","","","","75","","28","","","75684","0","7","22","outdoor_scenes","faces","","","Stimuli/Experimental_stims/scramble/outdoor_scenes/scrambled_petr-vysohlid-9fqwGqGLUxc-unsplash.jpg","Stimuli/Experimental_stims/scramble/faces/scrambled_ravi-patel-VMGAbeeJTKo-unsplash.jpg","0","","","","","","","2","","","","","","","","","","10","28200","14","34343","","300","0",""
"","deliberation_confirmation","","html-keyboard-response","158","76001","0.0-3.0-58.0-2.0-0.0","44","50477","1","null","","","","null","","28","","","75698","","","","","","","","","","","","","","","","","2","","","","","","","","","","290","28210","303","34357","","290","",""
"","iti","","html-keyboard-response","159","76109","0.0-3.0-58.0-4.0","44","50477","1","null","","","","null","","28","","","76001","","","","","","","","","","","","","","","","","2","","","","","","","","","","100","28500","108","34660","","100","",""
"","deliberation","","html-keyboard-response","160","76211","0.0-3.0-60.0-0.0","44","50477","1","97","","","","75","","29","","","76109","0","34","46","body_parts","objects","50","50","Stimuli/Experimental_stims/body_parts/wagner-santos-mBWMvIuVnso-unsplash.jpg","Stimuli/Experimental_stims/objects/mockup-graphics-PNsj6RiHAF4-unsplash.jpg","0","E","0","0","","original","2800","2","1","46","34","objects","body_parts","Stimuli/Experimental_stims/objects/mockup-graphics-PNsj6RiHAF4-unsplash.jpg","Stimuli/Experimental_stims/body_parts/wagner-santos-mBWMvIuVnso-unsplash.jpg","50","50","97","28600","102","34768","","","",""
"","deliberation_confirmation","","html-keyboard-response","161","77127","0.0-3.0-60.0-2.0-0.0","44","50477","1","null","","","","null","","29","","","76211","","","","","","","","","","","","","","","","","2","","","","","","","","","","903","28697","916","34870","","903","",""
"","iti","","html-keyboard-response","162","77240","0.0-3.0-60.0-4.0","44","50477","1","null","","","","null","","29","","","77127","","","","","","","","","","","","","","","","","2","","","","","","","","","","100","29600","113","35786","","100","",""
"","deliberation","","html-keyboard-response","163","78453","0.0-3.0-62.0-0.0","44","50477","1","213","","","","75","","30","","","77240","","","","","","","","","","0","A","0","1200","left","scramble","2100","2","1","0","40","outdoor_scenes","objects","Stimuli/Experimental_stims/scramble/outdoor_scenes/scrambled_aleksandra-boguslawska-MS7KD9Ti7FQ-unsplash.jpg","Stimuli/Experimental_stims/scramble/objects/scrambled_fabian-blank-pElSkGRA2NU-unsplash.jpg","NaN","NaN","1200","29700","1213","35899","","","",""
"","scramble_prompt","","html-keyboard-response","164","78459","0.0-3.0-62.0-1.0-0.0","44","50477","1","null","","","","null","","30","","","78453","NaN","NaN","NaN","NaN","NaN","","","NaN","NaN","","","","","","","","2","","","","","","","","","","-200","30900","6","37112","","-200","0","1"
"","deliberation_no_response","","html-keyboard-response","165","78576","0.0-3.0-62.0-3.0-0.0","44","50477","1","null","","","","null","","30","","","78459","","","","","","","","","","1","","","","","","","2","","","","","","","","","","100","30700","117","37118","1","","",""
"","iti","","html-keyboard-response","166","78683","0.0-3.0-62.0-4.0","44","50477","1","null","","","","null","","30","","","78576","","","","","","","","","","","","","","","","","2","","","","","","","","","","100","30800","107","37235","","100","",""
"","deliberation","","html-keyboard-response","167","78858","0.0-3.0-64.0-0.0","44","50477","1","169","","","","75","","31","","","78683","0","4","27","outdoor_scenes","body_parts","50","50","Stimuli/Experimental_stims/outdoor_scenes/jarrett-kow-1ZOyYPOBn7I-unsplash.jpg","Stimuli/Experimental_stims/body_parts/heike-mintel-i_Gns0ELnLw-unsplash.jpg","0","I","0","0","","original","3100","2","1","27","4","body_parts","outdoor_scenes","Stimuli/Experimental_stims/body_parts/heike-mintel-i_Gns0ELnLw-unsplash.jpg","Stimuli/Experimental_stims/outdoor_scenes/jarrett-kow-1ZOyYPOBn7I-unsplash.jpg","50","50","169","30900","175","37342","","","",""
"","deliberation_confirmation","","html-keyboard-response","168","79703","0.0-3.0-64.0-2.0-0.0","44","50477","1","null","","","","null","","31","","","78858","","","","","","","","","","","","","","","","","2","","","","","","","","","","831","31069","845","37517","","831","",""
"","iti","","html-keyboard-response","169","79817","0.0-3.0-64.0-4.0","44","50477","1","null","","","","null","","31","","","79703","","","","","","","","","","","","","","","","","2","","","","","","","","","","100","31900","114","38362","","100","",""
"","deliberation","","html-keyboard-response","170","81128","0.0-3.0-66.0-0.0","44","50477","1","18","","","","75","","32","","","79817","","","","","","","","","","0","L","0","1300","left","scramble","2300","2","1","29","17","body_parts","faces","Stimuli/Experimental_stims/scramble/body_parts/scrambled_manuel-schinner-ZwjFuJ7ebpk-unsplash.jpg","Stimuli/Experimental_stims/scramble/faces/scrambled_good-faces-xmSWVeGEnJw-unsplash.jpg","NaN","NaN","1300","32000","1311","38476","","","",""
"","scramble_prompt","","html-keyboard-response","171","81134","0.0-3.0-66.0-1.0-0.0","44","50477","1","null","","","","null","","32","","","81128","NaN","NaN","NaN","NaN","NaN","","","NaN","NaN","","","","","","","","2","","","","","","","","","","-300","33300","6","39787","","-300","0","1"
"","deliberation_no_response","","html-keyboard-response","172","81248","0.0-3.0-66.0-3.0-0.0","44","50477","1","null","","","","null","","32","","","81134","","","","","","","","","","1","","","","","","","2","","","","","","","","","","100","33000","114","39793","1","","",""
"","iti","","html-keyboard-response","173","81359","0.0-3.0-66.0-4.0","44","50477","1","null","","","","null","","32","","","81248","","","","","","","","","","","","","","","","","2","","","","","","","","","","100","33100","111","39907","","100","",""
"","deliberation","","html-keyboard-response","174","81476","0.0-3.0-68.0-0.0","44","50477","1","112","","","","75","","33","","","81359","0","45","16","objects","faces","50","50","Stimuli/Experimental_stims/objects/leohoho-rngTKHXumy0-unsplash.jpg","Stimuli/Experimental_stims/faces/freddy-kearney-o-ioeoATbIM-unsplash.jpg","0","J","0","0","","original","1900","2","1","16","45","faces","objects","Stimuli/Experimental_stims/faces/freddy-kearney-o-ioeoATbIM-unsplash.jpg","Stimuli/Experimental_stims/objects/leohoho-rngTKHXumy0-unsplash.jpg","50","50","112","33200","117","40018","","","",""
"","deliberation_confirmation","","html-keyboard-response","175","82373","0.0-3.0-68.0-2.0-0.0","44","50477","1","null","","","","null","","33","","","81476","","","","","","","","","","","","","","","","","2","","","","","","","","","","888","33312","897","40135","","888","",""
"","iti","","html-keyboard-response","176","82488","0.0-3.0-68.0-4.0","44","50477","1","null","","","","null","","33","","","82373","","","","","","","","","","","","","","","","","2","","","","","","","","","","100","34200","115","41032","","100","",""
"","deliberation","","html-keyboard-response","177","84304","0.0-3.0-70.0-0.0","44","50477","1","71","","","","75","","34","","","82488","","","","","","","","","","0","G","0","1800","right","scramble","2700","2","1","36","1","objects","outdoor_scenes","Stimuli/Experimental_stims/scramble/objects/scrambled_alexander-andrews-JYGnB9gTCls-unsplash.jpg","Stimuli/Experimental_stims/scramble/outdoor_scenes/scrambled_ashim-d-silva-S2Q5mdOrrVc-unsplash.jpg","NaN","NaN","1800","34300","1816","41147","","","",""
"","scramble_prompt","","html-keyboard-response","178","84311","0.0-3.0-70.0-1.0-0.0","44","50477","1","null","","","","null","","34","","","84304","NaN","NaN","NaN","NaN","NaN","","","NaN","NaN","","","","","","","","2","","","","","","","","","","-800","36100","7","42963","","-800","0","1"
"","deliberation_no_response","","html-keyboard-response","179","84416","0.0-3.0-70.0-3.0-0.0","44","50477","1","null","","","","null","","34","","","84311","","","","","","","","","","1","","","","","","","2","","","","","","","","","","100","35300","105","42970","1","","",""
"","iti","","html-keyboard-response","180","84528","0.0-3.0-70.0-4.0","44","50477","1","null","","","","null","","34","","","84416","","","","","","","","","","","","","","","","","2","","","","","","","","","","100","35400","112","43075","","100","",""
"","deliberation","","html-keyboard-response","181","84589","0.0-3.0-72.0-0.0","44","50477","1","55","","","","75","","35","","","84528","0","35","14","body_parts","faces","50","50","Stimuli/Experimental_stims/body_parts/wc-so-KH4AAPjb-tI-unsplash.jpg","Stimuli/Experimental_stims/faces/david-siglin-UuW4psOb388-unsplash.jpg","0","F","0","0","","original","1000","2","1","14","35","faces","body_parts","Stimuli/Experimental_stims/faces/david-siglin-UuW4psOb388-unsplash.jpg","Stimuli/Experimental_stims/body_parts/wc-so-KH4AAPjb-tI-unsplash.jpg","50","50","55","35500","61","43187","","","",""
"","deliberation_confirmation","","html-keyboard-response","182","85541","0.0-3.0-72.0-2.0-0.0","44","50477","1","null","","","","null","","35","","","84589","","","","","","","","","","","","","","","","","2","","","","","","","","","","945","35555","952","43248","","945","",""
"","iti","","html-keyboard-response","183","85655","0.0-3.0-72.0-4.0","44","50477","1","null","","","","null","","35","","","85541","","","","","","","","","","","","","","","","","2","","","","","","","","","","100","36500","114","44200","","100","",""
"","deliberation","","html-keyboard-response","184","85719","0.0-3.0-74.0-0.0","44","50477","1","60","","","","75","","36","","","85655","0","30","8","body_parts","outdoor_scenes","50","50","Stimuli/Experimental_stims/body_parts/mika-korhonen-Xodzxosar18-unsplash.jpg","Stimuli/Experimental_stims/outdoor_scenes/samsommer-vddccTqwal8-unsplash.jpg","0","C","0","0","","original","2400","2","1","8","30","outdoor_scenes","body_parts","Stimuli/Experimental_stims/outdoor_scenes/samsommer-vddccTqwal8-unsplash.jpg","Stimuli/Experimental_stims/body_parts/mika-korhonen-Xodzxosar18-unsplash.jpg","50","50","60","36600","64","44314","","","",""
"","deliberation_confirmation","","html-keyboard-response","185","86670","0.0-3.0-74.0-2.0-0.0","44","50477","1","null","","","","null","","36","","","85719","","","","","","","","","","","","","","","","","2","","","","","","","","","","940","36660","951","44378","","940","",""
"","iti","","html-keyboard-response","186","86782","0.0-3.0-74.0-4.0","44","50477","1","null","","","","null","","36","","","86670","","","","","","","","","","","","","","","","","2","","","","","","","","","","100","37600","112","45329","","100","",""
"","deliberation","","html-keyboard-response","187","88094","0.0-3.0-76.0-0.0","44","50477","1","78","","","","75","","37","","","86782","","","","","","","","","","0","I","0","1300","right","scramble","3400","2","1","27","4","body_parts","outdoor_scenes","Stimuli/Experimental_stims/scramble/body_parts/scrambled_heike-mintel-i_Gns0ELnLw-unsplash.jpg","Stimuli/Experimental_stims/scramble/outdoor_scenes/scrambled_jarrett-kow-1ZOyYPOBn7I-unsplash.jpg","NaN","NaN","1300","37700","1312","45441","","","",""
"","scramble_prompt","","html-keyboard-response","188","88101","0.0-3.0-76.0-1.0-0.0","44","50477","1","null","","","","null","","37","","","88094","NaN","NaN","NaN","NaN","NaN","","","NaN","NaN","","","","","","","","2","","","","","","","","","","-300","39000","7","46753","","-300","0","1"
"","deliberation_no_response","","html-keyboard-response","189","88215","0.0-3.0-76.0-3.0-0.0","44","50477","1","null","","","","null","","37","","","88101","","","","","","","","","","1","","","","","","","2","","","","","","","","","","100","38700","114","46760","1","","",""
"","iti","","html-keyboard-response","190","88324","0.0-3.0-76.0-4.0","44","50477","1","null","","","","null","","37","","","88215","","","","","","","","","","","","","","","","","2","","","","","","","","","","100","38800","109","46874","","100","",""
"","deliberation","","html-keyboard-response","191","90131","0.0-3.0-78.0-0.0","44","50477","1","59","","","","75","","38","","","88324","","","","","","","","","","0","J","0","1800","left","scramble","1200","2","1","16","45","faces","objects","Stimuli/Experimental_stims/scramble/faces/scrambled_freddy-kearney-o-ioeoATbIM-unsplash.jpg","Stimuli/Experimental_stims/scramble/objects/scrambled_leohoho-rngTKHXumy0-unsplash.jpg","NaN","NaN","1800","38900","1807","46983","","","",""
"","scramble_prompt","","html-keyboard-response","192","90140","0.0-3.0-78.0-1.0-0.0","44","50477","1","null","","","","null","","38","","","90131","NaN","NaN","NaN","NaN","NaN","","","NaN","NaN","","","","","","","","2","","","","","","","","","","-800","40700","9","48790","","-800","0","1"
"","deliberation_no_response","","html-keyboard-response","193","90252","0.0-3.0-78.0-3.0-0.0","44","50477","1","null","","","","null","","38","","","90140","","","","","","","","","","1","","","","","","","2","","","","","","","","","","100","39900","112","48799","1","","",""
"","iti","","html-keyboard-response","194","90369","0.0-3.0-78.0-4.0","44","50477","1","null","","","","null","","38","","","90252","","","","","","","","","","","","","","","","","2","","","","","","","","","","100","40000","117","48911","","100","",""
"","deliberation","","html-keyboard-response","195","90373","0.0-3.0-80.0-0.0","44","50477","1","1","","","","68","","39","","","90369","1","36","1","objects","outdoor_scenes","50","50","Stimuli/Experimental_stims/objects/alexander-andrews-JYGnB9gTCls-unsplash.jpg","Stimuli/Experimental_stims/outdoor_scenes/ashim-d-silva-S2Q5mdOrrVc-unsplash.jpg","0","G","0","0","","original","2000","2","1","36","1","objects","outdoor_scenes","Stimuli/Experimental_stims/objects/alexander-andrews-JYGnB9gTCls-unsplash.jpg","Stimuli/Experimental_stims/outdoor_scenes/ashim-d-silva-S2Q5mdOrrVc-unsplash.jpg","50","50","1","40100","4","49028","","","",""
"","deliberation_confirmation","","html-keyboard-response","196","91384","0.0-3.0-80.0-2.0-0.0","44","50477","1","null","","","","null","","39","","","90373","","","","","","","","","","","","","","","","","2","","","","","","","","","","999","40101","1011","49032","","999","",""
"","iti","","html-keyboard-response","197","91495","0.0-3.0-80.0-4.0","44","50477","1","null","","","","null","","39","","","91384","","","","","","","","","","","","","","","","","2","","","","","","","","","","100","41100","111","50043","","100","",""
"","deliberation","","html-keyboard-response","198","91673","0.0-3.0-82.0-0.0","44","50477","1","174","","","","68","","40","","","91495","1","29","17","body_parts","faces","50","50","Stimuli/Experimental_stims/body_parts/manuel-schinner-ZwjFuJ7ebpk-unsplash.jpg","Stimuli/Experimental_stims/faces/good-faces-xmSWVeGEnJw-unsplash.jpg","0","L","0","0","","original","1600","2","1","29","17","body_parts","faces","Stimuli/Experimental_stims/body_parts/manuel-schinner-ZwjFuJ7ebpk-unsplash.jpg","Stimuli/Experimental_stims/faces/good-faces-xmSWVeGEnJw-unsplash.jpg","50","50","174","41200","178","50154","","","",""
"","deliberation_confirmation","","html-keyboard-response","199","92512","0.0-3.0-82.0-2.0-0.0","44","50477","1","null","","","","null","","40","","","91673","","","","","","","","","","","","","","","","","2","","","","","","","","","","826","41374","839","50332","","826","",""
"","iti","","html-keyboard-response","200","92625","0.0-3.0-82.0-4.0","44","50477","1","null","","","","null","","40","","","92512","","","","","","","","","","","","","","","","","2","","","","","","","","","","100","42200","113","51171","","100","",""
"","deliberation","","html-keyboard-response","201","94534","0.0-3.0-84.0-0.0","44","50477","1","80","","","","68","","41","","","92625","","","","","","","","","","0","D","0","1900","left","scramble","2800","2","1","44","19","objects","faces","Stimuli/Experimental_stims/scramble/objects/scrambled_kuiye-chen-NuOGFo4PudE-unsplash.jpg","Stimuli/Experimental_stims/scramble/faces/scrambled_joel-mott-LaK153ghdig-unsplash.jpg","NaN","NaN","1900","42300","1909","51284","","","",""
"","scramble_prompt","","html-keyboard-response","202","94540","0.0-3.0-84.0-1.0-0.0","44","50477","1","null","","","","null","","41","","","94534","NaN","NaN","NaN","NaN","NaN","","","NaN","NaN","","","","","","","","2","","","","","","","","","","-900","44200","6","53193","","-900","0","1"
"","deliberation_no_response","","html-keyboard-response","203","94648","0.0-3.0-84.0-3.0-0.0","44","50477","1","null","","","","null","","41","","","94540","","","","","","","","","","1","","","","","","","2","","","","","","","","","","100","43300","108","53199","1","","",""
"","iti","","html-keyboard-response","204","94760","0.0-3.0-84.0-4.0","44","50477","1","null","","","","null","","41","","","94648","","","","","","","","","","","","","","","","","2","","","","","","","","","","100","43400","112","53307","","100","",""
"","deliberation","","html-keyboard-response","205","96177","0.0-3.0-86.0-0.0","44","50477","1","123","","","","68","","42","","","94760","","","","","","","","","","0","K","0","1400","right","scramble","1600","2","1","32","43","body_parts","objects","Stimuli/Experimental_stims/scramble/body_parts/scrambled_towfiqu-barbhuiya-3AsiVDsZnHg-unsplash.jpg","Stimuli/Experimental_stims/scramble/objects/scrambled_jonathan-greenaway-Y4hGgeiFn3s-unsplash.jpg","NaN","NaN","1400","43500","1417","53419","","","",""
"","scramble_prompt","","html-keyboard-response","206","96187","0.0-3.0-86.0-1.0-0.0","44","50477","1","null","","","","null","","42","","","96177","NaN","NaN","NaN","NaN","NaN","","","NaN","NaN","","","","","","","","2","","","","","","","","","","-400","44900","10","54836","","-400","0","1"
"","deliberation_no_response","","html-keyboard-response","207","96303","0.0-3.0-86.0-3.0-0.0","44","50477","1","null","","","","null","","42","","","96187","","","","","","","","","","1","","","","","","","2","","","","","","","","","","100","44500","116","54846","1","","",""
"","iti","","html-keyboard-response","208","96416","0.0-3.0-86.0-4.0","44","50477","1","null","","","","null","","42","","","96303","","","","","","","","","","","","","","","","","2","","","","","","","","","","100","44600","113","54962","","100","",""
"","deliberation","","html-keyboard-response","209","96682","0.0-3.0-88.0-0.0","44","50477","1","261","","","","68","","43","","","96416","1","44","19","objects","faces","50","50","Stimuli/Experimental_stims/objects/kuiye-chen-NuOGFo4PudE-unsplash.jpg","Stimuli/Experimental_stims/faces/joel-mott-LaK153ghdig-unsplash.jpg","0","D","0","0","","original","1400","2","1","44","19","objects","faces","Stimuli/Experimental_stims/objects/kuiye-chen-NuOGFo4PudE-unsplash.jpg","Stimuli/Experimental_stims/faces/joel-mott-LaK153ghdig-unsplash.jpg","50","50","261","44700","266","55075","","","",""
"","deliberation_confirmation","","html-keyboard-response","210","97427","0.0-3.0-88.0-2.0-0.0","44","50477","1","null","","","","null","","43","","","96682","","","","","","","","","","","","","","","","","2","","","","","","","","","","739","44961","745","55341","","739","",""
"","iti","","html-keyboard-response","211","97540","0.0-3.0-88.0-4.0","44","50477","1","null","","","","null","","43","","","97427","","","","","","","","","","","","","","","","","2","","","","","","","","","","100","45700","113","56086","","100","",""
"","deliberation","","html-keyboard-response","212","97576","0.0-3.0-90.0-0.0","44","50477","1","32","","","","68","","44","","","97540","1","32","43","body_parts","objects","50","50","Stimuli/Experimental_stims/body_parts/towfiqu-barbhuiya-3AsiVDsZnHg-unsplash.jpg","Stimuli/Experimental_stims/objects/jonathan-greenaway-Y4hGgeiFn3s-unsplash.jpg","0","K","0","0","","original","1900","2","1","32","43","body_parts","objects","Stimuli/Experimental_stims/body_parts/towfiqu-barbhuiya-3AsiVDsZnHg-unsplash.jpg","Stimuli/Experimental_stims/objects/jonathan-greenaway-Y4hGgeiFn3s-unsplash.jpg","50","50","32","45800","36","56199","","","",""
"","deliberation_confirmation","","html-keyboard-response","213","98559","0.0-3.0-90.0-2.0-0.0","44","50477","1","null","","","","null","","44","","","97576","","","","","","","","","","","","","","","","","2","","","","","","","","","","968","45832","983","56235","","968","",""
"","iti","","html-keyboard-response","214","98671","0.0-3.0-90.0-4.0","44","50477","1","null","","","","null","","44","","","98559","","","","","","","","","","","","","","","","","2","","","","","","","","","","100","46800","112","57218","","100","",""
"","deliberation","","html-keyboard-response","215","100384","0.0-3.0-92.0-0.0","44","50477","1","178","","","","68","","45","","","98671","","","","","","","","","","0","B","0","1700","right","scramble","3000","2","1","11","15","outdoor_scenes","faces","Stimuli/Experimental_stims/scramble/outdoor_scenes/scrambled_stephen-leonardi-gyIRjKPXupE-unsplash.jpg","Stimuli/Experimental_stims/scramble/faces/scrambled_erik-lucatero-d2MSDujJl2g-unsplash.jpg","NaN","NaN","1700","46900","1713","57330","","","",""
"","scramble_prompt","","html-keyboard-response","216","100391","0.0-3.0-92.0-1.0-0.0","44","50477","1","null","","","","null","","45","","","100384","NaN","NaN","NaN","NaN","NaN","","","NaN","NaN","","","","","","","","2","","","","","","","","","","-700","48600","7","59043","","-700","0","1"
"","deliberation_no_response","","html-keyboard-response","217","100500","0.0-3.0-92.0-3.0-0.0","44","50477","1","null","","","","null","","45","","","100391","","","","","","","","","","1","","","","","","","2","","","","","","","","","","100","47900","109","59050","1","","",""
"","iti","","html-keyboard-response","218","100613","0.0-3.0-92.0-4.0","44","50477","1","null","","","","null","","45","","","100500","","","","","","","","","","","","","","","","","2","","","","","","","","","","100","48000","113","59159","","100","",""
"","deliberation","","html-keyboard-response","219","100762","0.0-3.0-94.0-0.0","44","50477","1","145","","","","68","","46","","","100613","1","11","15","outdoor_scenes","faces","50","50","Stimuli/Experimental_stims/outdoor_scenes/stephen-leonardi-gyIRjKPXupE-unsplash.jpg","Stimuli/Experimental_stims/faces/erik-lucatero-d2MSDujJl2g-unsplash.jpg","0","B","0","0","","original","1100","2","1","11","15","outdoor_scenes","faces","Stimuli/Experimental_stims/outdoor_scenes/stephen-leonardi-gyIRjKPXupE-unsplash.jpg","Stimuli/Experimental_stims/faces/erik-lucatero-d2MSDujJl2g-unsplash.jpg","50","50","145","48100","149","59272","","","",""
"","deliberation_confirmation","","html-keyboard-response","220","101631","0.0-3.0-94.0-2.0-0.0","44","50477","1","null","","","","null","","46","","","100762","","","","","","","","","","","","","","","","","2","","","","","","","","","","855","48245","869","59421","","855","",""
"","iti","","html-keyboard-response","221","101740","0.0-3.0-94.0-4.0","44","50477","1","null","","","","null","","46","","","101631","","","","","","","","","","","","","","","","","2","","","","","","","","","","100","49100","109","60290","","100","",""
"","deliberation","","html-keyboard-response","222","102750","0.0-3.0-96.0-0.0","44","50477","1","110","","","","68","","47","","","101740","","","","","","","","","","0","E","0","1000","left","scramble","2000","2","1","46","34","objects","body_parts","Stimuli/Experimental_stims/scramble/objects/scrambled_mockup-graphics-PNsj6RiHAF4-unsplash.jpg","Stimuli/Experimental_stims/scramble/body_parts/scrambled_wagner-santos-mBWMvIuVnso-unsplash.jpg","NaN","NaN","1000","49200","1010","60399","","","",""
"","scramble_prompt","","html-keyboard-response","223","102756","0.0-3.0-96.0-1.0-0.0","44","50477","1","null","","","","null","","47","","","102750","NaN","NaN","NaN","NaN","NaN","","","NaN","NaN","","","","","","","","2","","","","","","","","","","0","50200","6","61409","","0","0","1"
"","deliberation_no_response","","html-keyboard-response","224","102868","0.0-3.0-96.0-3.0-0.0","44","50477","1","null","","","","null","","47","","","102756","","","","","","","","","","1","","","","","","","2","","","","","","","","","","100","50200","112","61415","1","","",""
"","iti","","html-keyboard-response","225","102984","0.0-3.0-96.0-4.0","44","50477","1","null","","","","null","","47","","","102868","","","","","","","","","","","","","","","","","2","","","","","","","","","","100","50300","116","61527","","100","",""
"","deliberation","","html-keyboard-response","226","103027","0.0-3.0-98.0-0.0","44","50477","1","37","","","","68","","48","","","102984","1","0","40","outdoor_scenes","objects","50","50","Stimuli/Experimental_stims/outdoor_scenes/aleksandra-boguslawska-MS7KD9Ti7FQ-unsplash.jpg","Stimuli/Experimental_stims/objects/fabian-blank-pElSkGRA2NU-unsplash.jpg","0","A","0","0","","original","1100","2","1","0","40","outdoor_scenes","objects","Stimuli/Experimental_stims/outdoor_scenes/aleksandra-boguslawska-MS7KD9Ti7FQ-unsplash.jpg","Stimuli/Experimental_stims/objects/fabian-blank-pElSkGRA2NU-unsplash.jpg","50","50","37","50400","43","61643","","","",""
"","deliberation_confirmation","","html-keyboard-response","227","103999","0.0-3.0-98.0-2.0-0.0","44","50477","1","null","","","","null","","48","","","103027","","","","","","","","","","","","","","","","","2","","","","","","","","","","963","50437","972","61686","","963","",""
"","iti","","html-keyboard-response","228","104110","0.0-3.0-98.0-4.0","44","50477","1","null","","","","null","","48","","","103999","","","","","","","","","","","","","","","","","2","","","","","","","","","","100","51400","111","62658","","100","",""
"","deliberation","","html-keyboard-response","229","105928","0.0-3.0-100.0-0.0","44","50477","1","199","","","","68","","49","","","104110","","","","","","","","","","0","F","0","1800","right","scramble","2400","2","1","14","35","faces","body_parts","Stimuli/Experimental_stims/scramble/faces/scrambled_david-siglin-UuW4psOb388-unsplash.jpg","Stimuli/Experimental_stims/scramble/body_parts/scrambled_wc-so-KH4AAPjb-tI-unsplash.jpg","NaN","NaN","1800","51500","1818","62769","","","",""
"","scramble_prompt","","html-keyboard-response","230","105935","0.0-3.0-100.0-1.0-0.0","44","50477","1","null","","","","null","","49","","","105928","NaN","NaN","NaN","NaN","NaN","","","NaN","NaN","","","","","","","","2","","","","","","","","","","-800","53300","7","64587","","-800","0","1"
"","deliberation_no_response","","html-keyboard-response","231","106044","0.0-3.0-100.0-3.0-0.0","44","50477","1","null","","","","null","","49","","","105935","","","","","","","","","","1","","","","","","","2","","","","","","","","","","100","52500","109","64594","1","","",""
"","iti","","html-keyboard-response","232","106160","0.0-3.0-100.0-4.0","44","50477","1","null","","","","null","","49","","","106044","","","","","","","","","","","","","","","","","2","","","","","","","","","","100","52600","116","64703","","100","",""
"","deliberation","","html-keyboard-response","233","107771","0.0-3.0-102.0-0.0","44","50477","1","31","","","","68","","50","","","106160","","","","","","","","","","0","C","0","1600","right","scramble","2100","2","1","8","30","outdoor_scenes","body_parts","Stimuli/Experimental_stims/scramble/outdoor_scenes/scrambled_samsommer-vddccTqwal8-unsplash.jpg","Stimuli/Experimental_stims/scramble/body_parts/scrambled_mika-korhonen-Xodzxosar18-unsplash.jpg","NaN","NaN","1600","52700","1611","64819","","","",""
"","scramble_prompt","","html-keyboard-response","234","107780","0.0-3.0-102.0-1.0-0.0","44","50477","1","null","","","","null","","50","","","107771","NaN","NaN","NaN","NaN","NaN","","","NaN","NaN","","","","","","","","2","","","","","","","","","","-600","54300","9","66430","","-600","0","1"
"","deliberation_no_response","","html-keyboard-response","235","107892","0.0-3.0-102.0-3.0-0.0","44","50477","1","null","","","","null","","50","","","107780","","","","","","","","","","1","","","","","","","2","","","","","","","","","","100","53700","112","66439","1","","",""
"","iti","","html-keyboard-response","236","108004","0.0-3.0-102.0-4.0","44","50477","1","null","","","","null","","50","","","107892","","","","","","","","","","","","","","","","","2","","","","","","","","","","100","53800","112","66551","","100","",""
"","deliberation","","html-keyboard-response","237","108080","0.0-3.0-104.0-0.0","44","50477","1","72","","","","68","","51","","","108004","1","22","7","faces","outdoor_scenes","50","50","Stimuli/Experimental_stims/faces/ravi-patel-VMGAbeeJTKo-unsplash.jpg","Stimuli/Experimental_stims/outdoor_scenes/petr-vysohlid-9fqwGqGLUxc-unsplash.jpg","0","H","0","0","","original","3100","2","1","22","7","faces","outdoor_scenes","Stimuli/Experimental_stims/faces/ravi-patel-VMGAbeeJTKo-unsplash.jpg","Stimuli/Experimental_stims/outdoor_scenes/petr-vysohlid-9fqwGqGLUxc-unsplash.jpg","50","50","72","53900","76","66663","","","",""
"","deliberation_confirmation","","html-keyboard-response","238","109024","0.0-3.0-104.0-2.0-0.0","44","50477","1","null","","","","null","","51","","","108080","","","","","","","","","","","","","","","","","2","","","","","","","","","","928","53972","944","66739","","928","",""
"","iti","","html-keyboard-response","239","109131","0.0-3.0-104.0-4.0","44","50477","1","null","","","","null","","51","","","109024","","","","","","","","","","","","","","","","","2","","","","","","","","","","100","54900","107","67683","","100","",""
"","deliberation_run_over","","html-keyboard-response","240","109397","0.0-3.0-104.0-6.0-0.0","44","50477","1","261","","","","68","","51","","","","","","","","","","","","","","","","","","","","","","","","","","","","","","","","","","","","",""
"","start_run","","html-keyboard-response","241","113855","0.0-3.0-104.0-6.0-1.0","44","50477","1","4453","","","","84","","","","","","","","","","","","","","","","","","","","","","","","","","","","","","","","","","","","","","",""
"","deliberation","","html-keyboard-response","242","114767","0.0-3.0-106.0-0.0","44","50477","1","null","","","","null","","52","","","113855","","","","","","","","","","1","K","0","900","left","scramble","1500","3","2","32","43","body_parts","objects","Stimuli/Experimental_stims/scramble/body_parts/scrambled_towfiqu-barbhuiya-3AsiVDsZnHg-unsplash.jpg","Stimuli/Experimental_stims/scramble/objects/scrambled_jonathan-greenaway-Y4hGgeiFn3s-unsplash.jpg","NaN","NaN","900","0","912","0","","","",""
"","scramble_prompt","","html-keyboard-response","243","114876","0.0-3.0-106.0-1.0-0.0","44","50477","1","null","","","","null","","52","","","114767","NaN","NaN","NaN","NaN","NaN","","","NaN","NaN","","","","","","","","3","","","","","","","","","","100","900","109","912","","100","0","1"
"","deliberation_no_response","","html-keyboard-response","244","114990","0.0-3.0-106.0-3.0-0.0","44","50477","1","null","","","","null","","52","","","114876","","","","","","","","","","1","","","","","","","3","","","","","","","","","","100","1000","114","1021","1","","",""
"","iti","","html-keyboard-response","245","115102","0.0-3.0-106.0-4.0","44","50477","1","null","","","","null","","52","","","114990","","","","","","","","","","","","","","","","","3","","","","","","","","","","100","1100","112","1135","","100","",""
"","deliberation","","html-keyboard-response","246","116216","0.0-3.0-108.0-0.0","44","50477","1","null","","","","null","","53","","","115102","","","","","","","","","","1","H","0","1100","left","scramble","1300","3","2","22","7","faces","outdoor_scenes","Stimuli/Experimental_stims/scramble/faces/scrambled_ravi-patel-VMGAbeeJTKo-unsplash.jpg","Stimuli/Experimental_stims/scramble/outdoor_scenes/scrambled_petr-vysohlid-9fqwGqGLUxc-unsplash.jpg","NaN","NaN","1100","1200","1114","1247","","","",""
"","scramble_prompt","","html-keyboard-response","247","116226","0.0-3.0-108.0-1.0-0.0","44","50477","1","null","","","","null","","53","","","116216","NaN","NaN","NaN","NaN","NaN","","","NaN","NaN","","","","","","","","3","","","","","","","","","","-100","2300","10","2361","","-100","0","1"
"","deliberation_no_response","","html-keyboard-response","248","116334","0.0-3.0-108.0-3.0-0.0","44","50477","1","null","","","","null","","53","","","116226","","","","","","","","","","1","","","","","","","3","","","","","","","","","","100","2200","108","2371","1","","",""
"","iti","","html-keyboard-response","249","116449","0.0-3.0-108.0-4.0","44","50477","1","null","","","","null","","53","","","116334","","","","","","","","","","","","","","","","","3","","","","","","","","","","100","2300","115","2479","","100","",""
"","deliberation","","html-keyboard-response","250","117461","0.0-3.0-110.0-0.0","44","50477","1","null","","","","null","","54","","","116449","NaN","NaN","NaN","NaN","NaN","NaN","NaN","NaN","NaN","1","F","0","0","","original","2300","3","2","14","35","faces","body_parts","Stimuli/Experimental_stims/faces/david-siglin-UuW4psOb388-unsplash.jpg","Stimuli/Experimental_stims/body_parts/wc-so-KH4AAPjb-tI-unsplash.jpg","50","50","1000","2400","1012","2594","","","",""
"","deliberation_no_response","","html-keyboard-response","251","117574","0.0-3.0-110.0-3.0-0.0","44","50477","1","null","","","","null","","54","","","117461","","","","","","","","","","1","","","","","","","3","","","","","","","","","","100","3400","113","3606","1","","",""
"","iti","","html-keyboard-response","252","117683","0.0-3.0-110.0-4.0","44","50477","1","null","","","","null","","54","","","117574","","","","","","","","","","","","","","","","","3","","","","","","","","","","100","3500","109","3719","","100","",""
"","deliberation","","html-keyboard-response","253","118693","0.0-3.0-112.0-0.0","44","50477","1","null","","","","null","","55","","","117683","NaN","NaN","NaN","NaN","NaN","NaN","NaN","NaN","NaN","1","L","0","0","","original","1400","3","2","29","17","body_parts","faces","Stimuli/Experimental_stims/body_parts/manuel-schinner-ZwjFuJ7ebpk-unsplash.jpg","Stimuli/Experimental_stims/faces/good-faces-xmSWVeGEnJw-unsplash.jpg","50","50","1000","3600","1010","3828","","","",""
"","deliberation_no_response","","html-keyboard-response","254","118804","0.0-3.0-112.0-3.0-0.0","44","50477","1","null","","","","null","","55","","","118693","","","","","","","","","","1","","","","","","","3","","","","","","","","","","100","4600","111","4838","1","","",""
"","iti","","html-keyboard-response","255","118916","0.0-3.0-112.0-4.0","44","50477","1","null","","","","null","","55","","","118804","","","","","","","","","","","","","","","","","3","","","","","","","","","","100","4700","112","4949","","100","",""
"","deliberation","","html-keyboard-response","256","120232","0.0-3.0-114.0-0.0","44","50477","1","null","","","","null","","56","","","118916","","","","","","","","","","1","G","0","1300","right","scramble","3100","3","2","36","1","objects","outdoor_scenes","Stimuli/Experimental_stims/scramble/objects/scrambled_alexander-andrews-JYGnB9gTCls-unsplash.jpg","Stimuli/Experimental_stims/scramble/outdoor_scenes/scrambled_ashim-d-silva-S2Q5mdOrrVc-unsplash.jpg","NaN","NaN","1300","4800","1316","5061","","","",""
"","scramble_prompt","","html-keyboard-response","257","120241","0.0-3.0-114.0-1.0-0.0","44","50477","1","null","","","","null","","56","","","120232","NaN","NaN","NaN","NaN","NaN","","","NaN","NaN","","","","","","","","3","","","","","","","","","","-300","6100","9","6377","","-300","0","1"
"","deliberation_no_response","","html-keyboard-response","258","120349","0.0-3.0-114.0-3.0-0.0","44","50477","1","null","","","","null","","56","","","120241","","","","","","","","","","1","","","","","","","3","","","","","","","","","","100","5800","108","6386","1","","",""
"","iti","","html-keyboard-response","259","120468","0.0-3.0-114.0-4.0","44","50477","1","null","","","","null","","56","","","120349","","","","","","","","","","","","","","","","","3","","","","","","","","","","100","5900","119","6494","","100","",""
"","deliberation","","html-keyboard-response","260","121486","0.0-3.0-116.0-0.0","44","50477","1","null","","","","null","","57","","","120468","NaN","NaN","NaN","NaN","NaN","NaN","NaN","NaN","NaN","1","J","0","0","","original","1500","3","2","16","45","faces","objects","Stimuli/Experimental_stims/faces/freddy-kearney-o-ioeoATbIM-unsplash.jpg","Stimuli/Experimental_stims/objects/leohoho-rngTKHXumy0-unsplash.jpg","50","50","1000","6000","1018","6613","","","",""
"","deliberation_no_response","","html-keyboard-response","261","121598","0.0-3.0-116.0-3.0-0.0","44","50477","1","null","","","","null","","57","","","121486","","","","","","","","","","1","","","","","","","3","","","","","","","","","","100","7000","112","7631","1","","",""
"","iti","","html-keyboard-response","262","121707","0.0-3.0-116.0-4.0","44","50477","1","null","","","","null","","57","","","121598","","","","","","","","","","","","","","","","","3","","","","","","","","","","100","7100","109","7743","","100","",""
"","deliberation","","html-keyboard-response","263","122717","0.0-3.0-118.0-0.0","44","50477","1","null","","","","null","","58","","","121707","NaN","NaN","NaN","NaN","NaN","NaN","NaN","NaN","NaN","1","G","0","0","","original","1200","3","2","36","1","objects","outdoor_scenes","Stimuli/Experimental_stims/objects/alexander-andrews-JYGnB9gTCls-unsplash.jpg","Stimuli/Experimental_stims/outdoor_scenes/ashim-d-silva-S2Q5mdOrrVc-unsplash.jpg","50","50","1000","7200","1010","7852","","","",""
"","deliberation_no_response","","html-keyboard-response","264","122832","0.0-3.0-118.0-3.0-0.0","44","50477","1","null","","","","null","","58","","","122717","","","","","","","","","","1","","","","","","","3","","","","","","","","","","100","8200","115","8862","1","","",""
"","iti","","html-keyboard-response","265","122939","0.0-3.0-118.0-4.0","44","50477","1","null","","","","null","","58","","","122832","","","","","","","","","","","","","","","","","3","","","","","","","","","","100","8300","107","8977","","100","",""
"","deliberation","","html-keyboard-response","266","123948","0.0-3.0-120.0-0.0","44","50477","1","null","","","","null","","59","","","122939","","","","","","","","","","1","C","0","1000","left","scramble","1500","3","2","8","30","outdoor_scenes","body_parts","Stimuli/Experimental_stims/scramble/outdoor_scenes/scrambled_samsommer-vddccTqwal8-unsplash.jpg","Stimuli/Experimental_stims/scramble/body_parts/scrambled_mika-korhonen-Xodzxosar18-unsplash.jpg","NaN","NaN","1000","8400","1009","9084","","","",""
"","scramble_prompt","","html-keyboard-response","267","123957","0.0-3.0-120.0-1.0-0.0","44","50477","1","null","","","","null","","59","","","123948","NaN","NaN","NaN","NaN","NaN","","","NaN","NaN","","","","","","","","3","","","","","","","","","","0","9400","9","10093","","0","0","1"
"","deliberation_no_response","","html-keyboard-response","268","124064","0.0-3.0-120.0-3.0-0.0","44","50477","1","null","","","","null","","59","","","123957","","","","","","","","","","1","","","","","","","3","","","","","","","","","","100","9400","107","10102","1","","",""
"","iti","","html-keyboard-response","269","124175","0.0-3.0-120.0-4.0","44","50477","1","null","","","","null","","59","","","124064","","","","","","","","","","","","","","","","","3","","","","","","","","","","100","9500","111","10209","","100","",""
"","deliberation","","html-keyboard-response","270","125285","0.0-3.0-122.0-0.0","44","50477","1","null","","","","null","","60","","","124175","","","","","","","","","","1","F","0","1100","left","scramble","1500","3","2","14","35","faces","body_parts","Stimuli/Experimental_stims/scramble/faces/scrambled_david-siglin-UuW4psOb388-unsplash.jpg","Stimuli/Experimental_stims/scramble/body_parts/scrambled_wc-so-KH4AAPjb-tI-unsplash.jpg","NaN","NaN","1100","9600","1110","10320","","","",""
"","scramble_prompt","","html-keyboard-response","271","125294","0.0-3.0-122.0-1.0-0.0","44","50477","1","null","","","","null","","60","","","125285","NaN","NaN","NaN","NaN","NaN","","","NaN","NaN","","","","","","","","3","","","","","","","","","","-100","10700","9","11430","","-100","0","1"
"","deliberation_no_response","","html-keyboard-response","272","125405","0.0-3.0-122.0-3.0-0.0","44","50477","1","null","","","","null","","60","","","125294","","","","","","","","","","1","","","","","","","3","","","","","","","","","","100","10600","111","11439","1","","",""
"","iti","","html-keyboard-response","273","125517","0.0-3.0-122.0-4.0","44","50477","1","null","","","","null","","60","","","125405","","","","","","","","","","","","","","","","","3","","","","","","","","","","100","10700","112","11550","","100","",""
"","deliberation","","html-keyboard-response","274","126528","0.0-3.0-124.0-0.0","44","50477","1","null","","","","null","","61","","","125517","NaN","NaN","NaN","NaN","NaN","NaN","NaN","NaN","NaN","1","I","0","0","","original","1500","3","2","27","4","body_parts","outdoor_scenes","Stimuli/Experimental_stims/body_parts/heike-mintel-i_Gns0ELnLw-unsplash.jpg","Stimuli/Experimental_stims/outdoor_scenes/jarrett-kow-1ZOyYPOBn7I-unsplash.jpg","50","50","1000","10800","1011","11662","","","",""
"","deliberation_no_response","","html-keyboard-response","275","126640","0.0-3.0-124.0-3.0-0.0","44","50477","1","null","","","","null","","61","","","126528","","","","","","","","","","1","","","","","","","3","","","","","","","","","","100","11800","112","12673","1","","",""
"","iti","","html-keyboard-response","276","126752","0.0-3.0-124.0-4.0","44","50477","1","null","","","","null","","61","","","126640","","","","","","","","","","","","","","","","","3","","","","","","","","","","100","11900","112","12785","","100","",""
"","deliberation","","html-keyboard-response","277","127766","0.0-3.0-126.0-0.0","44","50477","1","null","","","","null","","62","","","126752","NaN","NaN","NaN","NaN","NaN","NaN","NaN","NaN","NaN","1","A","0","0","","original","3200","3","2","0","40","outdoor_scenes","objects","Stimuli/Experimental_stims/outdoor_scenes/aleksandra-boguslawska-MS7KD9Ti7FQ-unsplash.jpg","Stimuli/Experimental_stims/objects/fabian-blank-pElSkGRA2NU-unsplash.jpg","50","50","1000","12000","1014","12897","","","",""
"","deliberation_no_response","","html-keyboard-response","278","127878","0.0-3.0-126.0-3.0-0.0","44","50477","1","null","","","","null","","62","","","127766","","","","","","","","","","1","","","","","","","3","","","","","","","","","","100","13000","112","13911","1","","",""
"","iti","","html-keyboard-response","279","127987","0.0-3.0-126.0-4.0","44","50477","1","null","","","","null","","62","","","127878","","","","","","","","","","","","","","","","","3","","","","","","","","","","100","13100","109","14023","","100","",""
"","deliberation","","html-keyboard-response","280","129400","0.0-3.0-128.0-0.0","44","50477","1","null","","","","null","","63","","","127987","","","","","","","","","","1","A","0","1400","left","scramble","1600","3","2","0","40","outdoor_scenes","objects","Stimuli/Experimental_stims/scramble/outdoor_scenes/scrambled_aleksandra-boguslawska-MS7KD9Ti7FQ-unsplash.jpg","Stimuli/Experimental_stims/scramble/objects/scrambled_fabian-blank-pElSkGRA2NU-unsplash.jpg","NaN","NaN","1400","13200","1413","14132","","","",""
"","scramble_prompt","","html-keyboard-response","281","129409","0.0-3.0-128.0-1.0-0.0","44","50477","1","null","","","","null","","63","","","129400","NaN","NaN","NaN","NaN","NaN","","","NaN","NaN","","","","","","","","3","","","","","","","","","","-400","14600","9","15545","","-400","0","1"
"","deliberation_no_response","","html-keyboard-response","282","129519","0.0-3.0-128.0-3.0-0.0","44","50477","1","null","","","","null","","63","","","129409","","","","","","","","","","1","","","","","","","3","","","","","","","","","","100","14200","110","15554","1","","",""
"","iti","","html-keyboard-response","283","129632","0.0-3.0-128.0-4.0","44","50477","1","null","","","","null","","63","","","129519","","","","","","","","","","","","","","","","","3","","","","","","","","","","100","14300","113","15664","","100","",""
"","deliberation","","html-keyboard-response","284","130648","0.0-3.0-130.0-0.0","44","50477","1","null","","","","null","","64","","","129632","NaN","NaN","NaN","NaN","NaN","NaN","NaN","NaN","NaN","1","C","0","0","","original","2000","3","2","8","30","outdoor_scenes","body_parts","Stimuli/Experimental_stims/outdoor_scenes/samsommer-vddccTqwal8-unsplash.jpg","Stimuli/Experimental_stims/body_parts/mika-korhonen-Xodzxosar18-unsplash.jpg","50","50","1000","14400","1016","15777","","","",""
"","deliberation_no_response","","html-keyboard-response","285","130760","0.0-3.0-130.0-3.0-0.0","44","50477","1","null","","","","null","","64","","","130648","","","","","","","","","","1","","","","","","","3","","","","","","","","","","100","15400","112","16793","1","","",""
"","iti","","html-keyboard-response","286","130867","0.0-3.0-130.0-4.0","44","50477","1","null","","","","null","","64","","","130760","","","","","","","","","","","","","","","","","3","","","","","","","","","","100","15500","107","16905","","100","",""
"","deliberation","","html-keyboard-response","287","131780","0.0-3.0-132.0-0.0","44","50477","1","null","","","","null","","65","","","130867","","","","","","","","","","1","E","0","900","right","scramble","1800","3","2","46","34","objects","body_parts","Stimuli/Experimental_stims/scramble/objects/scrambled_mockup-graphics-PNsj6RiHAF4-unsplash.jpg","Stimuli/Experimental_stims/scramble/body_parts/scrambled_wagner-santos-mBWMvIuVnso-unsplash.jpg","NaN","NaN","900","15600","913","17012","","","",""
"","scramble_prompt","","html-keyboard-response","288","131893","0.0-3.0-132.0-1.0-0.0","44","50477","1","null","","","","null","","65","","","131780","NaN","NaN","NaN","NaN","NaN","","","NaN","NaN","","","","","","","","3","","","","","","","","","","100","16500","113","17925","","100","0","1"
"","deliberation_no_response","","html-keyboard-response","289","132008","0.0-3.0-132.0-3.0-0.0","44","50477","1","null","","","","null","","65","","","131893","","","","","","","","","","1","","","","","","","3","","","","","","","","","","100","16600","115","18038","1","","",""
"","iti","","html-keyboard-response","290","132118","0.0-3.0-132.0-4.0","44","50477","1","null","","","","null","","65","","","132008","","","","","","","","","","","","","","","","","3","","","","","","","","","","100","16700","110","18153","","100","",""
