"success","ttype","start_time","trial_type","trial_index","time_elapsed","internal_node_id","age","PID","gender","rt","responses","view_history","repeat_instructions","key_press","response","index","stimulus_index","path","start_time_elapsed","run","task","isi","is_odd_ball","no_response","acc","duration","onset","duration_time_elapsed","onset_time_elapsed","trial_duration","left_chosen","chosen_stimulus","unchosen_stimulus","chosen_category","unchosen_category","chosen_rating","unchosen_rating","chosen_path","unchosen_path","pair_id","practice","scramble_screen_time","scramble_instructed_side","stim_type","iti","block","left_stimulus","right_stimulus","left_category","right_category","left_path","right_path","left_rating","right_rating","scramble_acc","warning","scramble_no_response","missed_checkup","stimulus_id","item_id","outcome","response_rt","deliberation_reward_tally","choice_type","gain_left","left_item_id","right_item_id","higher_outcome_chosen","chosen_left","old_pair","pair_type","old_response","pair_acc","reward_type","outcome_response","outcome_rt","outcome_acc","category","choice","deliberated_stim","old_rating","new_rating","total_reward_tally"
"true","full_screen","d08172023hr0142","fullscreen","0","156871","0.0-0.0-0.0","35","85508","female","","","","","","","","","","","","","","","","","","","","","","","","","","","","","","","","","","","","","","","","","","","","","","","","","","","","","","","","","","","","","","","","","","","","","","","","","",""
"","get_id","","survey-text","1","168086","0.0-0.0-1.0","35","85508","female","11198","{""Q0"":""35"",""Q1"":""female""}","","","","","","","","","","","","","","","","","","","","","","","","","","","","","","","","","","","","","","","","","","","","","","","","","","","","","","","","","","","","","","","","","","","","","","","",""
"","ratings_instructions","","instructions","2","187047","0.0-1.0-0.0-0.0","35","85508","female","16521","","[{""page_index"":0,""viewing_time"":9954},{""page_index"":1,""viewing_time"":6566}]","","","","","","","","","","","","","","","","","","","","","","","","","","","","","","","","","","","","","","","","","","","","","","","","","","","","","","","","","","","","","","","","","","","","","","",""
"","rating_comprehension_check","","survey-multi-choice","3","195914","0.0-1.0-0.0-1.0","35","85508","female","8836","{""Q0"":""True"",""Q1"":""Mouse""}","","0","","","","","","","","","","","","","","","","","","","","","","","","","","","","","","","","","","","","","","","","","","","","","","","","","","","","","","","","","","","","","","","","","","","","","",""
"","","","html-keyboard-response","4","206837","0.0-1.0-1.0","35","85508","female","10905","","","","68","","","","","","","","","","","","","","","","","","","","","","","","","","","","","","","","","","","","","","","","","","","","","","","","","","","","","","","","","","","","","","","","","","","","",""
"","rating","","html-slider-response","5","217729","0.0-1.0-2.0","35","85508","female","10872","","","","","88","0","38","Stimuli/Experimental_stims/objects/art-lasovsky-8XddFc6NkBY-unsplash.jpg","","","","","","","","","","","","","","","","","","","","","","","","","","","","","","","","","","","","","","","","","","","","","","","","","","","","","","","","","","","","","","","","",""
"","rating","","html-slider-response","6","223478","0.0-1.0-3.0","35","85508","female","5734","","","","","76","1","24","Stimuli/Experimental_stims/body_parts/clay-banks-LjqARJaJotc-unsplash.jpg","","","","","","","","","","","","","","","","","","","","","","","","","","","","","","","","","","","","","","","","","","","","","","","","","","","","","","","","","","","","","","","","",""
"","rating","","html-slider-response","7","233113","0.0-1.0-4.0","35","85508","female","9621","","","","","90","2","13","Stimuli/Experimental_stims/faces/daniel-rigdon-dXmXKPP2L4E-unsplash.jpg","","","","","","","","","","","","","","","","","","","","","","","","","","","","","","","","","","","","","","","","","","","","","","","","","","","","","","","","","","","","","","","","",""
"","rating","","html-slider-response","8","239441","0.0-1.0-5.0","35","85508","female","6311","","","","","92","3","2","Stimuli/Experimental_stims/outdoor_scenes/bruno-van-der-kraan-qez8mNJ3ilU-unsplash.jpg","","","","","","","","","","","","","","","","","","","","","","","","","","","","","","","","","","","","","","","","","","","","","","","","","","","","","","","","","","","","","","","","",""
"","rating","","html-slider-response","9","250462","0.0-1.0-6.0","35","85508","female","11000","","","","","58","4","36","Stimuli/Experimental_stims/objects/alexander-andrews-JYGnB9gTCls-unsplash.jpg","","","","","","","","","","","","","","","","","","","","","","","","","","","","","","","","","","","","","","","","","","","","","","","","","","","","","","","","","","","","","","","","",""
"","rating","","html-slider-response","10","256400","0.0-1.0-7.0","35","85508","female","5910","","","","","93","5","7","Stimuli/Experimental_stims/outdoor_scenes/petr-vysohlid-9fqwGqGLUxc-unsplash.jpg","","","","","","","","","","","","","","","","","","","","","","","","","","","","","","","","","","","","","","","","","","","","","","","","","","","","","","","","","","","","","","","","",""
"","rating","","html-slider-response","11","266040","0.0-1.0-8.0","35","85508","female","9624","","","","","79","6","28","Stimuli/Experimental_stims/body_parts/ira-vishnevskaya-8DQAvdCby1I-unsplash.jpg","","","","","","","","","","","","","","","","","","","","","","","","","","","","","","","","","","","","","","","","","","","","","","","","","","","","","","","","","","","","","","","","",""
"","rating","","html-slider-response","12","274716","0.0-1.0-9.0","35","85508","female","8644","","","","","80","7","14","Stimuli/Experimental_stims/faces/david-siglin-UuW4psOb388-unsplash.jpg","","","","","","","","","","","","","","","","","","","","","","","","","","","","","","","","","","","","","","","","","","","","","","","","","","","","","","","","","","","","","","","","",""
"","rating","","html-slider-response","13","283379","0.0-1.0-10.0","35","85508","female","8647","","","","","79","8","23","Stimuli/Experimental_stims/faces/rikonavt-HQjfrvdTfak-unsplash.jpg","","","","","","","","","","","","","","","","","","","","","","","","","","","","","","","","","","","","","","","","","","","","","","","","","","","","","","","","","","","","","","","","",""
"","rating","","html-slider-response","14","292346","0.0-1.0-11.0","35","85508","female","8941","","","","","96","9","39","Stimuli/Experimental_stims/objects/charlesdeluvio-1-nx1QR5dTE-unsplash.jpg","","","","","","","","","","","","","","","","","","","","","","","","","","","","","","","","","","","","","","","","","","","","","","","","","","","","","","","","","","","","","","","","",""
"","rating","","html-slider-response","15","309485","0.0-1.0-12.0","35","85508","female","17110","","","","","97","10","11","Stimuli/Experimental_stims/outdoor_scenes/stephen-leonardi-gyIRjKPXupE-unsplash.jpg","","","","","","","","","","","","","","","","","","","","","","","","","","","","","","","","","","","","","","","","","","","","","","","","","","","","","","","","","","","","","","","","",""
"","rating","","html-slider-response","16","315970","0.0-1.0-13.0","35","85508","female","6464","","","","","100","11","16","Stimuli/Experimental_stims/faces/freddy-kearney-o-ioeoATbIM-unsplash.jpg","","","","","","","","","","","","","","","","","","","","","","","","","","","","","","","","","","","","","","","","","","","","","","","","","","","","","","","","","","","","","","","","",""
"","rating","","html-slider-response","17","322043","0.0-1.0-14.0","35","85508","female","6058","","","","","90","12","46","Stimuli/Experimental_stims/objects/mockup-graphics-PNsj6RiHAF4-unsplash.jpg","","","","","","","","","","","","","","","","","","","","","","","","","","","","","","","","","","","","","","","","","","","","","","","","","","","","","","","","","","","","","","","","",""
"","rating","","html-slider-response","18","327847","0.0-1.0-15.0","35","85508","female","5785","","","","","100","13","20","Stimuli/Experimental_stims/faces/justin-chen-J7Cf1Gch49E-unsplash.jpg","","","","","","","","","","","","","","","","","","","","","","","","","","","","","","","","","","","","","","","","","","","","","","","","","","","","","","","","","","","","","","","","",""
"","rating","","html-slider-response","19","334085","0.0-1.0-16.0","35","85508","female","6221","","","","","92","14","18","Stimuli/Experimental_stims/faces/jessica-radanavong-mrYkTuAesKE-unsplash.jpg","","","","","","","","","","","","","","","","","","","","","","","","","","","","","","","","","","","","","","","","","","","","","","","","","","","","","","","","","","","","","","","","",""
"","rating","","html-slider-response","20","342712","0.0-1.0-17.0","35","85508","female","8611","","","","","88","15","42","Stimuli/Experimental_stims/objects/jess-bailey-nOeVi8DsN8U-unsplash.jpg","","","","","","","","","","","","","","","","","","","","","","","","","","","","","","","","","","","","","","","","","","","","","","","","","","","","","","","","","","","","","","","","",""
"","rating","","html-slider-response","21","348860","0.0-1.0-18.0","35","85508","female","6133","","","","","89","16","5","Stimuli/Experimental_stims/outdoor_scenes/jeff-king-bJHWJeiHfHc-unsplash.jpg","","","","","","","","","","","","","","","","","","","","","","","","","","","","","","","","","","","","","","","","","","","","","","","","","","","","","","","","","","","","","","","","",""
"","rating","","html-slider-response","22","358296","0.0-1.0-19.0","35","85508","female","9418","","","","","67","17","25","Stimuli/Experimental_stims/body_parts/engin-akyurt-Q2rfH3GW39c-unsplash.jpg","","","","","","","","","","","","","","","","","","","","","","","","","","","","","","","","","","","","","","","","","","","","","","","","","","","","","","","","","","","","","","","","",""
"","rating","","html-slider-response","23","365425","0.0-1.0-20.0","35","85508","female","7105","","","","","90","18","29","Stimuli/Experimental_stims/body_parts/manuel-schinner-ZwjFuJ7ebpk-unsplash.jpg","","","","","","","","","","","","","","","","","","","","","","","","","","","","","","","","","","","","","","","","","","","","","","","","","","","","","","","","","","","","","","","","",""
"","rating","","html-slider-response","24","372412","0.0-1.0-21.0","35","85508","female","6960","","","","","99","19","47","Stimuli/Experimental_stims/objects/ronaldo-arthur-vidal-Cdz_lvnl37k-unsplash.jpg","","","","","","","","","","","","","","","","","","","","","","","","","","","","","","","","","","","","","","","","","","","","","","","","","","","","","","","","","","","","","","","","",""
"","rating","","html-slider-response","25","380106","0.0-1.0-22.0","35","85508","female","7678","","","","","86","20","4","Stimuli/Experimental_stims/outdoor_scenes/jarrett-kow-1ZOyYPOBn7I-unsplash.jpg","","","","","","","","","","","","","","","","","","","","","","","","","","","","","","","","","","","","","","","","","","","","","","","","","","","","","","","","","","","","","","","","",""
"","rating","","html-slider-response","26","386400","0.0-1.0-23.0","35","85508","female","6272","","","","","80","21","31","Stimuli/Experimental_stims/body_parts/sincerely-media-VN6DbKajo5s-unsplash.jpg","","","","","","","","","","","","","","","","","","","","","","","","","","","","","","","","","","","","","","","","","","","","","","","","","","","","","","","","","","","","","","","","",""
"","rating","","html-slider-response","27","391497","0.0-1.0-24.0","35","85508","female","5086","","","","","74","22","44","Stimuli/Experimental_stims/objects/kuiye-chen-NuOGFo4PudE-unsplash.jpg","","","","","","","","","","","","","","","","","","","","","","","","","","","","","","","","","","","","","","","","","","","","","","","","","","","","","","","","","","","","","","","","",""
"","rating","","html-slider-response","28","399041","0.0-1.0-25.0","35","85508","female","7525","","","","","90","23","37","Stimuli/Experimental_stims/objects/alexander-andrews-VLGWE_SumrA-unsplash.jpg","","","","","","","","","","","","","","","","","","","","","","","","","","","","","","","","","","","","","","","","","","","","","","","","","","","","","","","","","","","","","","","","",""
"","rating","","html-slider-response","29","404863","0.0-1.0-26.0","35","85508","female","5804","","","","","96","24","10","Stimuli/Experimental_stims/outdoor_scenes/shannon-kunkle-dM8INmkyDas-unsplash.jpg","","","","","","","","","","","","","","","","","","","","","","","","","","","","","","","","","","","","","","","","","","","","","","","","","","","","","","","","","","","","","","","","",""
"","rating","","html-slider-response","30","412787","0.0-1.0-27.0","35","85508","female","7910","","","","","87","25","40","Stimuli/Experimental_stims/objects/fabian-blank-pElSkGRA2NU-unsplash.jpg","","","","","","","","","","","","","","","","","","","","","","","","","","","","","","","","","","","","","","","","","","","","","","","","","","","","","","","","","","","","","","","","",""
"","rating","","html-slider-response","31","418897","0.0-1.0-28.0","35","85508","female","6096","","","","","90","26","9","Stimuli/Experimental_stims/outdoor_scenes/sergey-pesterev-y-b_FOmJXdg-unsplash.jpg","","","","","","","","","","","","","","","","","","","","","","","","","","","","","","","","","","","","","","","","","","","","","","","","","","","","","","","","","","","","","","","","",""
"","rating","","html-slider-response","32","426365","0.0-1.0-29.0","35","85508","female","7455","","","","","86","27","41","Stimuli/Experimental_stims/objects/insung-yoon-w2JtIQQXoRU-unsplash.jpg","","","","","","","","","","","","","","","","","","","","","","","","","","","","","","","","","","","","","","","","","","","","","","","","","","","","","","","","","","","","","","","","",""
"","rating","","html-slider-response","33","432406","0.0-1.0-30.0","35","85508","female","6028","","","","","83","28","8","Stimuli/Experimental_stims/outdoor_scenes/samsommer-vddccTqwal8-unsplash.jpg","","","","","","","","","","","","","","","","","","","","","","","","","","","","","","","","","","","","","","","","","","","","","","","","","","","","","","","","","","","","","","","","",""
"","rating","","html-slider-response","34","438391","0.0-1.0-31.0","35","85508","female","5960","","","","","93","29","3","Stimuli/Experimental_stims/outdoor_scenes/henry-be-NLF6hTe4PAg-unsplash.jpg","","","","","","","","","","","","","","","","","","","","","","","","","","","","","","","","","","","","","","","","","","","","","","","","","","","","","","","","","","","","","","","","",""
"","rating","","html-slider-response","35","447658","0.0-1.0-32.0","35","85508","female","9253","","","","","82","30","27","Stimuli/Experimental_stims/body_parts/heike-mintel-i_Gns0ELnLw-unsplash.jpg","","","","","","","","","","","","","","","","","","","","","","","","","","","","","","","","","","","","","","","","","","","","","","","","","","","","","","","","","","","","","","","","",""
"","rating","","html-slider-response","36","453632","0.0-1.0-33.0","35","85508","female","5955","","","","","95","31","19","Stimuli/Experimental_stims/faces/joel-mott-LaK153ghdig-unsplash.jpg","","","","","","","","","","","","","","","","","","","","","","","","","","","","","","","","","","","","","","","","","","","","","","","","","","","","","","","","","","","","","","","","",""
"","rating","","html-slider-response","37","459209","0.0-1.0-34.0","35","85508","female","5555","","","","","92","32","45","Stimuli/Experimental_stims/objects/leohoho-rngTKHXumy0-unsplash.jpg","","","","","","","","","","","","","","","","","","","","","","","","","","","","","","","","","","","","","","","","","","","","","","","","","","","","","","","","","","","","","","","","",""
"","rating","","html-slider-response","38","466733","0.0-1.0-35.0","35","85508","female","7510","","","","","80","33","30","Stimuli/Experimental_stims/body_parts/mika-korhonen-Xodzxosar18-unsplash.jpg","","","","","","","","","","","","","","","","","","","","","","","","","","","","","","","","","","","","","","","","","","","","","","","","","","","","","","","","","","","","","","","","",""
"","rating","","html-slider-response","39","473946","0.0-1.0-36.0","35","85508","female","7200","","","","","93","34","21","Stimuli/Experimental_stims/faces/leilani-angel-K84vnnzxmTQ-unsplash.jpg","","","","","","","","","","","","","","","","","","","","","","","","","","","","","","","","","","","","","","","","","","","","","","","","","","","","","","","","","","","","","","","","",""
"","rating","","html-slider-response","40","480524","0.0-1.0-37.0","35","85508","female","6558","","","","","64","35","34","Stimuli/Experimental_stims/body_parts/wagner-santos-mBWMvIuVnso-unsplash.jpg","","","","","","","","","","","","","","","","","","","","","","","","","","","","","","","","","","","","","","","","","","","","","","","","","","","","","","","","","","","","","","","","",""
"","rating","","html-slider-response","41","491307","0.0-1.0-38.0","35","85508","female","10769","","","","","81","36","35","Stimuli/Experimental_stims/body_parts/wc-so-KH4AAPjb-tI-unsplash.jpg","","","","","","","","","","","","","","","","","","","","","","","","","","","","","","","","","","","","","","","","","","","","","","","","","","","","","","","","","","","","","","","","",""
"","rating","","html-slider-response","42","496448","0.0-1.0-39.0","35","85508","female","5132","","","","","85","37","15","Stimuli/Experimental_stims/faces/erik-lucatero-d2MSDujJl2g-unsplash.jpg","","","","","","","","","","","","","","","","","","","","","","","","","","","","","","","","","","","","","","","","","","","","","","","","","","","","","","","","","","","","","","","","",""
"","rating","","html-slider-response","43","500495","0.0-1.0-40.0","35","85508","female","4034","","","","","94","38","1","Stimuli/Experimental_stims/outdoor_scenes/ashim-d-silva-S2Q5mdOrrVc-unsplash.jpg","","","","","","","","","","","","","","","","","","","","","","","","","","","","","","","","","","","","","","","","","","","","","","","","","","","","","","","","","","","","","","","","",""
"","rating","","html-slider-response","44","504015","0.0-1.0-41.0","35","85508","female","3508","","","","","62","39","22","Stimuli/Experimental_stims/faces/ravi-patel-VMGAbeeJTKo-unsplash.jpg","","","","","","","","","","","","","","","","","","","","","","","","","","","","","","","","","","","","","","","","","","","","","","","","","","","","","","","","","","","","","","","","",""
"","rating","","html-slider-response","45","507513","0.0-1.0-42.0","35","85508","female","3474","","","","","88","40","26","Stimuli/Experimental_stims/body_parts/engin-akyurt-x_3gyC42btc-unsplash.jpg","","","","","","","","","","","","","","","","","","","","","","","","","","","","","","","","","","","","","","","","","","","","","","","","","","","","","","","","","","","","","","","","",""
"","rating","","html-slider-response","46","511283","0.0-1.0-43.0","35","85508","female","3745","","","","","59","41","0","Stimuli/Experimental_stims/outdoor_scenes/aleksandra-boguslawska-MS7KD9Ti7FQ-unsplash.jpg","","","","","","","","","","","","","","","","","","","","","","","","","","","","","","","","","","","","","","","","","","","","","","","","","","","","","","","","","","","","","","","","",""
"","rating","","html-slider-response","47","513933","0.0-1.0-44.0","35","85508","female","2633","","","","","66","42","43","Stimuli/Experimental_stims/objects/jonathan-greenaway-Y4hGgeiFn3s-unsplash.jpg","","","","","","","","","","","","","","","","","","","","","","","","","","","","","","","","","","","","","","","","","","","","","","","","","","","","","","","","","","","","","","","","",""
"","rating","","html-slider-response","48","517519","0.0-1.0-45.0","35","85508","female","3574","","","","","66","43","32","Stimuli/Experimental_stims/body_parts/towfiqu-barbhuiya-3AsiVDsZnHg-unsplash.jpg","","","","","","","","","","","","","","","","","","","","","","","","","","","","","","","","","","","","","","","","","","","","","","","","","","","","","","","","","","","","","","","","",""
"","rating","","html-slider-response","49","521431","0.0-1.0-46.0","35","85508","female","3899","","","","","69","44","17","Stimuli/Experimental_stims/faces/good-faces-xmSWVeGEnJw-unsplash.jpg","","","","","","","","","","","","","","","","","","","","","","","","","","","","","","","","","","","","","","","","","","","","","","","","","","","","","","","","","","","","","","","","",""
"","rating","","html-slider-response","50","528239","0.0-1.0-47.0","35","85508","female","6795","","","","","100","45","6","Stimuli/Experimental_stims/outdoor_scenes/meng-ji-8BH_M-53CyA-unsplash.jpg","","","","","","","","","","","","","","","","","","","","","","","","","","","","","","","","","","","","","","","","","","","","","","","","","","","","","","","","","","","","","","","","",""
"","rating","","html-slider-response","51","531691","0.0-1.0-48.0","35","85508","female","3437","","","","","65","46","33","Stimuli/Experimental_stims/body_parts/tucker-good-36skLT5jZcc-unsplash.jpg","","","","","","","","","","","","","","","","","","","","","","","","","","","","","","","","","","","","","","","","","","","","","","","","","","","","","","","","","","","","","","","","",""
"","rating","","html-slider-response","52","534823","0.0-1.0-49.0","35","85508","female","3119","","","","","71","47","12","Stimuli/Experimental_stims/faces/aiony-haust-jmATI5Q_YgY-unsplash.jpg","","","","","","","","","","","","","","","","","","","","","","","","","","","","","","","","","","","","","","","","","","","","","","","","","","","","","","","","","","","","","","","","",""
"","localizer_instructions","","instructions","53","618137","0.0-2.0-0.0-0.0","35","85508","female","83212","","[{""page_index"":0,""viewing_time"":32983},{""page_index"":1,""viewing_time"":29402},{""page_index"":2,""viewing_time"":4354},{""page_index"":1,""viewing_time"":14651},{""page_index"":2,""viewing_time"":1822}]","","","","","","","","","","","","","","","","","","","","","","","","","","","","","","","","","","","","","","","","","","","","","","","","","","","","","","","","","","","","","","","","","","","","","","",""
"","localizer_comprehension_check","","survey-multi-choice","54","634139","0.0-2.0-0.0-1.0","35","85508","female","15985","{""Q0"":""True"",""Q1"":""K"",""Q2"":""D""}","","0","","","","","","","","","","","","","","","","","","","","","","","","","","","","","","","","","","","","","","","","","","","","","","","","","","","","","","","","","","","","","","","","","","","","","",""
"","","","html-keyboard-response","55","640466","0.0-2.0-1.0","35","85508","female","6306","","","","68","","","","","","","","","","","","","","","","","","","","","","","","","","","","","","","","","","","","","","","","","","","","","","","","","","","","","","","","","","","","","","","","","","","","",""
"","localizer","","html-keyboard-response","56","640894","0.0-2.0-2.0-0.0","35","85508","female","NaN","","","","null","NaN","0","","Stimuli/Practice_stims/Localizer/annie-spratt-g9KFpAfQ5bc-unsplash.jpg","640466","0","NaN","","0","1","0","400","0","428","0","","","","","","","","","","","","","","","","","","","","","","","","","","","","","","","","","","","","","","","","","","","","","","","","","","","","","",""
"","iti_localizer","","html-keyboard-response","57","641212","0.0-2.0-2.0-1.0","35","85508","female","null","","","","null","","0","","","640894","0","","","","","","300","400","318","428","300","","","","","","","","","","","","","","","","","","","","","","","","","","","","","","","","","","","","","","","","","","","","","","","","","","","","",""
"","localizer","","html-keyboard-response","58","641653","0.0-2.0-2.1-0.1","35","85508","female","NaN","","","","null","NaN","0","","Stimuli/Practice_stims/Localizer/annie-spratt-g9KFpAfQ5bc-unsplash.jpg","641212","0","NaN","","0","1","0","400","700","441","746","","","","","","","","","","","","","","","","","","","","","","","","","","","","","","","","","","","","","","","","","","","","","","","","","","","","","",""
"","iti_localizer","","html-keyboard-response","59","641970","0.0-2.0-2.1-1.1","35","85508","female","null","","","","null","","0","","","641653","0","","","","","","300","1100","317","1187","300","","","","","","","","","","","","","","","","","","","","","","","","","","","","","","","","","","","","","","","","","","","","","","","","","","","","",""
"","localizer","","html-keyboard-response","60","642394","0.0-2.0-2.2-0.2","35","85508","female","NaN","","","","null","NaN","0","","Stimuli/Practice_stims/Localizer/annie-spratt-g9KFpAfQ5bc-unsplash.jpg","641970","0","NaN","","0","1","0","400","1400","424","1504","","","","","","","","","","","","","","","","","","","","","","","","","","","","","","","","","","","","","","","","","","","","","","","","","","","","","",""
"","iti_localizer","","html-keyboard-response","61","642710","0.0-2.0-2.2-1.2","35","85508","female","null","","","","null","","0","","","642394","0","","","","","","300","1800","316","1928","300","","","","","","","","","","","","","","","","","","","","","","","","","","","","","","","","","","","","","","","","","","","","","","","","","","","","",""
"","localizer","","html-keyboard-response","62","643200","0.0-2.0-2.3-0.3","35","85508","female","20","","","","68","0","0","","Stimuli/Practice_stims/Localizer/annie-spratt-g9KFpAfQ5bc-unsplash.jpg","642710","0","NaN","","0","0","1","400","2100","490","2244","","","","","","","","","","","","","","","","","","","","","","","","","","","","","","","","","","","","","","","","","","","","","","","","","","","","","",""
"","iti_localizer","","html-keyboard-response","63","643519","0.0-2.0-2.3-1.3","35","85508","female","null","","","","null","","0","","","643200","0","","","","","","300","2500","319","2734","300","","","","","","","","","","","","","","","","","","","","","","","","","","","","","","","","","","","","","","","","","","","","","","","","","","","","",""
"","localizer","","html-keyboard-response","64","644017","0.0-2.0-3.0-0.0","35","85508","female","NaN","","","","null","NaN","1","","Stimuli/Practice_stims/Localizer/becca-tapert-sY5RjMB1KkE-unsplash.jpg","643519","0","NaN","","0","1","0","400","2800","498","3053","","","","","","","","","","","","","","","","","","","","","","","","","","","","","","","","","","","","","","","","","","","","","","","","","","","","","",""
"","iti_localizer","","html-keyboard-response","65","644432","0.0-2.0-3.0-1.0","35","85508","female","null","","","","null","","1","","","644017","0","","","","","","300","3200","415","3551","300","","","","","","","","","","","","","","","","","","","","","","","","","","","","","","","","","","","","","","","","","","","","","","","","","","","","",""
"","localizer","","html-keyboard-response","66","644893","0.0-2.0-3.1-0.1","35","85508","female","NaN","","","","null","NaN","1","","Stimuli/Practice_stims/Localizer/becca-tapert-sY5RjMB1KkE-unsplash.jpg","644432","0","NaN","","0","1","0","400","3500","461","3966","","","","","","","","","","","","","","","","","","","","","","","","","","","","","","","","","","","","","","","","","","","","","","","","","","","","","",""
"","iti_localizer","","html-keyboard-response","67","645225","0.0-2.0-3.1-1.1","35","85508","female","null","","","","null","","1","","","644893","0","","","","","","300","3900","332","4427","300","","","","","","","","","","","","","","","","","","","","","","","","","","","","","","","","","","","","","","","","","","","","","","","","","","","","",""
"","localizer","","html-keyboard-response","68","645642","0.0-2.0-3.2-0.2","35","85508","female","44","","","","68","0","1","","Stimuli/Practice_stims/Localizer/becca-tapert-sY5RjMB1KkE-unsplash.jpg","645225","0","NaN","","0","0","1","400","4200","417","4759","","","","","","","","","","","","","","","","","","","","","","","","","","","","","","","","","","","","","","","","","","","","","","","","","","","","","",""
"","iti_localizer","","html-keyboard-response","69","645962","0.0-2.0-3.2-1.2","35","85508","female","null","","","","null","","1","","","645642","0","","","","","","300","4600","320","5176","300","","","","","","","","","","","","","","","","","","","","","","","","","","","","","","","","","","","","","","","","","","","","","","","","","","","","",""
"","localizer","","html-keyboard-response","70","646385","0.0-2.0-4.0-0.0","35","85508","female","NaN","","","","null","NaN","2","","Stimuli/Practice_stims/Localizer/charl-durand-bsfXvI25iNg-unsplash.jpg","645962","0","NaN","","1","1","0","400","4900","423","5496","","","","","","","","","","","","","","","","","","","","","","","","","","","","","","","","","","","","","","","","","","","","","","","","","","","","","",""
"","iti_localizer","","html-keyboard-response","71","646725","0.0-2.0-4.0-1.0","35","85508","female","null","","","","null","","2","","","646385","0","","","","","","300","5300","340","5919","300","","","","","","","","","","","","","","","","","","","","","","","","","","","","","","","","","","","","","","","","","","","","","","","","","","","","",""
"","localizer","","html-keyboard-response","72","647185","0.0-2.0-4.1-0.1","35","85508","female","NaN","","","","null","NaN","2","","Stimuli/Practice_stims/Localizer/charl-durand-bsfXvI25iNg-unsplash.jpg","646725","0","NaN","","1","1","0","400","5600","460","6259","","","","","","","","","","","","","","","","","","","","","","","","","","","","","","","","","","","","","","","","","","","","","","","","","","","","","",""
"","iti_localizer","","html-keyboard-response","73","647514","0.0-2.0-4.1-1.1","35","85508","female","null","","","","null","","2","","","647185","0","","","","","","300","6000","329","6719","300","","","","","","","","","","","","","","","","","","","","","","","","","","","","","","","","","","","","","","","","","","","","","","","","","","","","",""
"","localizer","","html-keyboard-response","74","647930","0.0-2.0-4.2-0.2","35","85508","female","NaN","","","","null","NaN","2","","Stimuli/Practice_stims/Localizer/charl-durand-bsfXvI25iNg-unsplash.jpg","647514","0","NaN","","1","1","0","400","6300","416","7048","","","","","","","","","","","","","","","","","","","","","","","","","","","","","","","","","","","","","","","","","","","","","","","","","","","","","",""
"","iti_localizer","","html-keyboard-response","75","648248","0.0-2.0-4.2-1.2","35","85508","female","null","","","","null","","2","","","647930","0","","","","","","300","6700","318","7464","300","","","","","","","","","","","","","","","","","","","","","","","","","","","","","","","","","","","","","","","","","","","","","","","","","","","","",""
"","localizer","","html-keyboard-response","76","648665","0.0-2.0-4.3-0.3","35","85508","female","NaN","","","","null","NaN","2","","Stimuli/Practice_stims/Localizer/charl-durand-bsfXvI25iNg-unsplash.jpg","648248","0","NaN","","1","1","0","400","7000","417","7782","","","","","","","","","","","","","","","","","","","","","","","","","","","","","","","","","","","","","","","","","","","","","","","","","","","","","",""
"","iti_localizer","","html-keyboard-response","77","648976","0.0-2.0-4.3-1.3","35","85508","female","null","","","","null","","2","","","648665","0","","","","","","300","7400","311","8199","300","","","","","","","","","","","","","","","","","","","","","","","","","","","","","","","","","","","","","","","","","","","","","","","","","","","","",""
"","localizer","","html-keyboard-response","78","649392","0.0-2.0-4.4-0.4","35","85508","female","NaN","","","","null","NaN","2","","Stimuli/Practice_stims/Localizer/charl-durand-bsfXvI25iNg-unsplash.jpg","648976","0","NaN","","1","1","0","400","7700","416","8510","","","","","","","","","","","","","","","","","","","","","","","","","","","","","","","","","","","","","","","","","","","","","","","","","","","","","",""
"","iti_localizer","","html-keyboard-response","79","649708","0.0-2.0-4.4-1.4","35","85508","female","null","","","","null","","2","","","649392","0","","","","","","300","8100","316","8926","300","","","","","","","","","","","","","","","","","","","","","","","","","","","","","","","","","","","","","","","","","","","","","","","","","","","","",""
"","localizer","","html-keyboard-response","80","650125","0.0-2.0-4.5-0.5","35","85508","female","NaN","","","","null","NaN","2","","Stimuli/Practice_stims/Localizer/charl-durand-bsfXvI25iNg-unsplash.jpg","649708","0","NaN","","1","1","0","400","8400","417","9242","","","","","","","","","","","","","","","","","","","","","","","","","","","","","","","","","","","","","","","","","","","","","","","","","","","","","",""
"","iti_localizer","","html-keyboard-response","81","650449","0.0-2.0-4.5-1.5","35","85508","female","null","","","","null","","2","","","650125","0","","","","","","300","8800","324","9659","300","","","","","","","","","","","","","","","","","","","","","","","","","","","","","","","","","","","","","","","","","","","","","","","","","","","","",""
"","localizer","","html-keyboard-response","82","650870","0.0-2.0-4.6-0.6","35","85508","female","25","","","","75","1","2","","Stimuli/Practice_stims/Localizer/charl-durand-bsfXvI25iNg-unsplash.jpg","650449","0","NaN","","1","0","1","400","9100","421","9983","","","","","","","","","","","","","","","","","","","","","","","","","","","","","","","","","","","","","","","","","","","","","","","","","","","","","",""
"","iti_localizer","","html-keyboard-response","83","651211","0.0-2.0-4.6-1.6","35","85508","female","null","","","","null","","2","","","650870","0","","","","","","300","9500","341","10404","300","","","","","","","","","","","","","","","","","","","","","","","","","","","","","","","","","","","","","","","","","","","","","","","","","","","","",""
"","localizer","","html-keyboard-response","84","651634","0.0-2.0-5.0-0.0","35","85508","female","NaN","","","","null","NaN","3","","Stimuli/Practice_stims/Localizer/nizar-albusaidy-B2r2SWAf5CE-unsplash.jpg","651211","0","NaN","","0","1","0","400","9800","423","10745","","","","","","","","","","","","","","","","","","","","","","","","","","","","","","","","","","","","","","","","","","","","","","","","","","","","","",""
"","iti_localizer","","html-keyboard-response","85","651961","0.0-2.0-5.0-1.0","35","85508","female","null","","","","null","","3","","","651634","0","","","","","","300","10200","327","11168","300","","","","","","","","","","","","","","","","","","","","","","","","","","","","","","","","","","","","","","","","","","","","","","","","","","","","",""
"","localizer","","html-keyboard-response","86","652378","0.0-2.0-5.1-0.1","35","85508","female","NaN","","","","null","NaN","3","","Stimuli/Practice_stims/Localizer/nizar-albusaidy-B2r2SWAf5CE-unsplash.jpg","651961","0","NaN","","0","1","0","400","10500","417","11495","","","","","","","","","","","","","","","","","","","","","","","","","","","","","","","","","","","","","","","","","","","","","","","","","","","","","",""
"","iti_localizer","","html-keyboard-response","87","652696","0.0-2.0-5.1-1.1","35","85508","female","null","","","","null","","3","","","652378","0","","","","","","300","10900","318","11912","300","","","","","","","","","","","","","","","","","","","","","","","","","","","","","","","","","","","","","","","","","","","","","","","","","","","","",""
"","localizer","","html-keyboard-response","88","653110","0.0-2.0-5.2-0.2","35","85508","female","NaN","","","","null","NaN","3","","Stimuli/Practice_stims/Localizer/nizar-albusaidy-B2r2SWAf5CE-unsplash.jpg","652696","0","NaN","","0","1","0","400","11200","414","12230","","","","","","","","","","","","","","","","","","","","","","","","","","","","","","","","","","","","","","","","","","","","","","","","","","","","","",""
"","iti_localizer","","html-keyboard-response","89","653432","0.0-2.0-5.2-1.2","35","85508","female","null","","","","null","","3","","","653110","0","","","","","","300","11600","322","12644","300","","","","","","","","","","","","","","","","","","","","","","","","","","","","","","","","","","","","","","","","","","","","","","","","","","","","",""
"","localizer","","html-keyboard-response","90","653949","0.0-2.0-5.3-0.3","35","85508","female","25","","","","68","0","3","","Stimuli/Practice_stims/Localizer/nizar-albusaidy-B2r2SWAf5CE-unsplash.jpg","653432","0","NaN","","0","0","1","400","11900","517","12966","","","","","","","","","","","","","","","","","","","","","","","","","","","","","","","","","","","","","","","","","","","","","","","","","","","","","",""
"","iti_localizer","","html-keyboard-response","91","654271","0.0-2.0-5.3-1.3","35","85508","female","null","","","","null","","3","","","653949","0","","","","","","300","12300","322","13483","300","","","","","","","","","","","","","","","","","","","","","","","","","","","","","","","","","","","","","","","","","","","","","","","","","","","","",""
"","localizer","","html-keyboard-response","92","654688","0.0-2.0-6.0-0.0","35","85508","female","NaN","","","","null","NaN","4","","Stimuli/Practice_stims/Localizer/randy-fath-epf1tdtIIkM-unsplash.jpg","654271","0","NaN","","1","1","0","400","12600","417","13805","","","","","","","","","","","","","","","","","","","","","","","","","","","","","","","","","","","","","","","","","","","","","","","","","","","","","",""
"","iti_localizer","","html-keyboard-response","93","655059","0.0-2.0-6.0-1.0","35","85508","female","null","","","","null","","4","","","654688","0","","","","","","300","13000","371","14222","300","","","","","","","","","","","","","","","","","","","","","","","","","","","","","","","","","","","","","","","","","","","","","","","","","","","","",""
"","localizer","","html-keyboard-response","94","655485","0.0-2.0-6.1-0.1","35","85508","female","253","","","","75","1","4","","Stimuli/Practice_stims/Localizer/randy-fath-epf1tdtIIkM-unsplash.jpg","655059","0","NaN","","1","0","1","400","13300","426","14593","","","","","","","","","","","","","","","","","","","","","","","","","","","","","","","","","","","","","","","","","","","","","","","","","","","","","",""
"","iti_localizer","","html-keyboard-response","95","655802","0.0-2.0-6.1-1.1","35","85508","female","null","","","","null","","4","","","655485","0","","","","","","300","13700","317","15019","300","","","","","","","","","","","","","","","","","","","","","","","","","","","","","","","","","","","","","","","","","","","","","","","","","","","","",""
"","localizer","","html-keyboard-response","96","656227","0.0-2.0-7.0-0.0","35","85508","female","NaN","","","","null","NaN","5","","Stimuli/Practice_stims/Localizer/yassine-khalfalli-adsQ9d_Cx0c-unsplash.jpg","655802","0","NaN","","0","1","0","400","14000","425","15336","","","","","","","","","","","","","","","","","","","","","","","","","","","","","","","","","","","","","","","","","","","","","","","","","","","","","",""
"","iti_localizer","","html-keyboard-response","97","656543","0.0-2.0-7.0-1.0","35","85508","female","null","","","","null","","5","","","656227","0","","","","","","300","14400","316","15761","300","","","","","","","","","","","","","","","","","","","","","","","","","","","","","","","","","","","","","","","","","","","","","","","","","","","","",""
"","localizer","","html-keyboard-response","98","656969","0.0-2.0-7.1-0.1","35","85508","female","239","","","","68","0","5","","Stimuli/Practice_stims/Localizer/yassine-khalfalli-adsQ9d_Cx0c-unsplash.jpg","656543","0","NaN","","0","0","1","400","14700","426","16077","","","","","","","","","","","","","","","","","","","","","","","","","","","","","","","","","","","","","","","","","","","","","","","","","","","","","",""
"","iti_localizer","","html-keyboard-response","99","657307","0.0-2.0-7.1-1.1","35","85508","female","null","","","","null","","5","","","656969","0","","","","","","300","15100","338","16503","300","","","","","","","","","","","","","","","","","","","","","","","","","","","","","","","","","","","","","","","","","","","","","","","","","","","","",""
"","practice_over","","html-keyboard-response","100","661752","0.0-2.0-7.1-2.1-0.1","35","85508","female","4433","","","","68","","","","","","","","","","","","","","","","","","","","","","","","","","","","","","","","","","","","","","","","","","","","","","","","","","","","","","","","","","","","","","","","","","","","",""
"","start_run","","html-keyboard-response","101","664519","0.0-2.0-7.1-2.1-1.1","35","85508","female","2754","","","","84","","","","","","","","","","","","","","","","","","","","","","","","","","","","","","","","","","","","","","","","","","","","","","","","","","","","","","","","","","","","","","","","","","","","",""
"","localizer","","html-keyboard-response","102","664938","0.0-2.0-8.0-0.0","35","85508","female","NaN","","","","null","NaN","6","","Stimuli/Experimental_stims/localizer/faces/christina-wocintechchat-com-0Zx1bDv5BNY-unsplash.jpg","664519","1","faces","","0","1","0","400","0","419","0","","","","","","","","","","","","","","","","","","","","","","","","","","","","","","","","","","","","","","","","","","","","","","","","","","","","","",""
"","iti_localizer","","html-keyboard-response","103","665258","0.0-2.0-8.0-1.0","35","85508","female","null","","","","null","","6","","","664938","1","","","","","","300","400","320","419","300","","","","","","","","","","","","","","","","","","","","","","","","","","","","","","","","","","","","","","","","","","","","","","","","","","","","",""
"","localizer","","html-keyboard-response","104","665732","0.0-2.0-9.0-0.0","35","85508","female","NaN","","","","null","NaN","7","","Stimuli/Experimental_stims/localizer/faces/jeffery-erhunse-BQMZ5ligqps-unsplash.jpg","665258","1","faces","","0","1","0","400","700","474","739","","","","","","","","","","","","","","","","","","","","","","","","","","","","","","","","","","","","","","","","","","","","","","","","","","","","","",""
"","iti_localizer","","html-keyboard-response","105","666050","0.0-2.0-9.0-1.0","35","85508","female","null","","","","null","","7","","","665732","1","","","","","","300","1100","318","1213","300","","","","","","","","","","","","","","","","","","","","","","","","","","","","","","","","","","","","","","","","","","","","","","","","","","","","",""
"","localizer","","html-keyboard-response","106","666475","0.0-2.0-10.0-0.0","35","85508","female","376","","","","68","0","8","","Stimuli/Experimental_stims/localizer/faces/matheus-ferrero-W7b3eDUb_2I-unsplash.jpg","666050","1","faces","","0","0","1","400","1400","425","1531","","","","","","","","","","","","","","","","","","","","","","","","","","","","","","","","","","","","","","","","","","","","","","","","","","","","","",""
"","iti_localizer","","html-keyboard-response","107","666792","0.0-2.0-10.0-1.0","35","85508","female","null","","","","null","","8","","","666475","1","","","","","","300","1800","317","1956","300","","","","","","","","","","","","","","","","","","","","","","","","","","","","","","","","","","","","","","","","","","","","","","","","","","","","",""
"","localizer","","html-keyboard-response","108","667229","0.0-2.0-11.0-0.0","35","85508","female","NaN","","","","null","NaN","9","","Stimuli/Experimental_stims/localizer/faces/jurica-koletic-7YVZYZeITc8-unsplash.jpg","666792","1","faces","","1","1","0","400","2100","437","2273","","","","","","","","","","","","","","","","","","","","","","","","","","","","","","","","","","","","","","","","","","","","","","","","","","","","","",""
"","iti_localizer","","html-keyboard-response","109","667548","0.0-2.0-11.0-1.0","35","85508","female","null","","","","null","","9","","","667229","1","","","","","","300","2500","319","2710","300","","","","","","","","","","","","","","","","","","","","","","","","","","","","","","","","","","","","","","","","","","","","","","","","","","","","",""
"","localizer","","html-keyboard-response","110","667970","0.0-2.0-12.0-0.0","35","85508","female","91","","","","68","0","10","","Stimuli/Experimental_stims/localizer/faces/drew-hays-agGIKYs4mYs-unsplash.jpg","667548","1","faces","","0","0","1","400","2800","422","3029","","","","","","","","","","","","","","","","","","","","","","","","","","","","","","","","","","","","","","","","","","","","","","","","","","","","","",""
"","iti_localizer","","html-keyboard-response","111","668295","0.0-2.0-12.0-1.0","35","85508","female","null","","","","null","","10","","","667970","1","","","","","","300","3200","325","3451","300","","","","","","","","","","","","","","","","","","","","","","","","","","","","","","","","","","","","","","","","","","","","","","","","","","","","",""
"","localizer","","html-keyboard-response","112","668713","0.0-2.0-13.0-0.0","35","85508","female","NaN","","","","null","NaN","11","","Stimuli/Experimental_stims/localizer/faces/rui-silvestre-hAMJpesMeDE-unsplash.jpg","668295","1","faces","","0","1","0","400","3500","418","3776","","","","","","","","","","","","","","","","","","","","","","","","","","","","","","","","","","","","","","","","","","","","","","","","","","","","","",""
"","iti_localizer","","html-keyboard-response","113","669036","0.0-2.0-13.0-1.0","35","85508","female","null","","","","null","","11","","","668713","1","","","","","","300","3900","323","4194","300","","","","","","","","","","","","","","","","","","","","","","","","","","","","","","","","","","","","","","","","","","","","","","","","","","","","",""
"","localizer","","html-keyboard-response","114","669453","0.0-2.0-14.0-0.0","35","85508","female","NaN","","","","null","NaN","12","","Stimuli/Experimental_stims/localizer/faces/sean-kong--1B_y4wGs-s-unsplash.jpg","669036","1","faces","","0","1","0","400","4200","417","4517","","","","","","","","","","","","","","","","","","","","","","","","","","","","","","","","","","","","","","","","","","","","","","","","","","","","","",""
"","iti_localizer","","html-keyboard-response","115","669773","0.0-2.0-14.0-1.0","35","85508","female","null","","","","null","","12","","","669453","1","","","","","","300","4600","320","4934","300","","","","","","","","","","","","","","","","","","","","","","","","","","","","","","","","","","","","","","","","","","","","","","","","","","","","",""
"","localizer","","html-keyboard-response","116","670224","0.0-2.0-15.0-0.0","35","85508","female","272","","","","75","1","13","","Stimuli/Experimental_stims/localizer/faces/vince-fleming-j3lf-Jn6deo-unsplash.jpg","669773","1","faces","","0","0","0","400","4900","451","5254","","","","","","","","","","","","","","","","","","","","","","","","","","","","","","","","","","","","","","","","","","","","","","","","","","","","","",""
"","iti_localizer","","html-keyboard-response","117","670537","0.0-2.0-15.0-1.0","35","85508","female","null","","","","null","","13","","","670224","1","","","","","","300","5300","313","5705","300","","","","","","","","","","","","","","","","","","","","","","","","","","","","","","","","","","","","","","","","","","","","","","","","","","","","",""
"","localizer","","html-keyboard-response","118","670959","0.0-2.0-16.0-0.0","35","85508","female","255","","","","68","0","14","","Stimuli/Experimental_stims/localizer/faces/tyler-nix-ZGa9d1a_4tA-unsplash.jpg","670537","1","faces","","0","0","1","400","5600","422","6018","","","","","","","","","","","","","","","","","","","","","","","","","","","","","","","","","","","","","","","","","","","","","","","","","","","","","",""
"","iti_localizer","","html-keyboard-response","119","671279","0.0-2.0-16.0-1.0","35","85508","female","null","","","","null","","14","","","670959","1","","","","","","300","6000","320","6440","300","","","","","","","","","","","","","","","","","","","","","","","","","","","","","","","","","","","","","","","","","","","","","","","","","","","","",""
"","localizer","","html-keyboard-response","120","671700","0.0-2.0-17.0-0.0","35","85508","female","NaN","","","","null","NaN","15","","Stimuli/Experimental_stims/localizer/faces/abstral-official-cyOKLSgkgCE-unsplash.jpg","671279","1","faces","","0","1","0","400","6300","421","6760","","","","","","","","","","","","","","","","","","","","","","","","","","","","","","","","","","","","","","","","","","","","","","","","","","","","","",""
"","iti_localizer","","html-keyboard-response","121","672025","0.0-2.0-17.0-1.0","35","85508","female","null","","","","null","","15","","","671700","1","","","","","","300","6700","325","7181","300","","","","","","","","","","","","","","","","","","","","","","","","","","","","","","","","","","","","","","","","","","","","","","","","","","","","",""
"","localizer","","html-keyboard-response","122","672441","0.0-2.0-18.0-0.0","35","85508","female","NaN","","","","null","NaN","16","","Stimuli/Experimental_stims/localizer/faces/ethan-haddox-__ng3cRXmFE-unsplash.jpg","672025","1","faces","","0","1","0","400","7000","416","7506","","","","","","","","","","","","","","","","","","","","","","","","","","","","","","","","","","","","","","","","","","","","","","","","","","","","","",""
"","iti_localizer","","html-keyboard-response","123","672756","0.0-2.0-18.0-1.0","35","85508","female","null","","","","null","","16","","","672441","1","","","","","","300","7400","315","7922","300","","","","","","","","","","","","","","","","","","","","","","","","","","","","","","","","","","","","","","","","","","","","","","","","","","","","",""
"","localizer","","html-keyboard-response","124","673186","0.0-2.0-19.0-0.0","35","85508","female","NaN","","","","null","NaN","17","","Stimuli/Experimental_stims/localizer/faces/foto-sushi-6anudmpILw4-unsplash.jpg","672756","1","faces","","0","1","0","400","7700","430","8237","","","","","","","","","","","","","","","","","","","","","","","","","","","","","","","","","","","","","","","","","","","","","","","","","","","","","",""
"","iti_localizer","","html-keyboard-response","125","673498","0.0-2.0-19.0-1.0","35","85508","female","null","","","","null","","17","","","673186","1","","","","","","300","8100","312","8667","300","","","","","","","","","","","","","","","","","","","","","","","","","","","","","","","","","","","","","","","","","","","","","","","","","","","","",""
"","localizer","","html-keyboard-response","126","673914","0.0-2.0-20.0-0.0","35","85508","female","NaN","","","","null","NaN","18","","Stimuli/Experimental_stims/localizer/faces/christian-ferrer-8vT-DgHZDG4-unsplash.jpg","673498","1","faces","","0","1","0","400","8400","416","8979","","","","","","","","","","","","","","","","","","","","","","","","","","","","","","","","","","","","","","","","","","","","","","","","","","","","","",""
"","iti_localizer","","html-keyboard-response","127","674240","0.0-2.0-20.0-1.0","35","85508","female","null","","","","null","","18","","","673914","1","","","","","","300","8800","326","9395","300","","","","","","","","","","","","","","","","","","","","","","","","","","","","","","","","","","","","","","","","","","","","","","","","","","","","",""
"","localizer","","html-keyboard-response","128","674655","0.0-2.0-21.0-0.0","35","85508","female","NaN","","","","null","NaN","19","","Stimuli/Experimental_stims/localizer/faces/stephanie-nakagawa-ADSKIn0ScDg-unsplash.jpg","674240","1","faces","","0","1","0","400","9100","415","9721","","","","","","","","","","","","","","","","","","","","","","","","","","","","","","","","","","","","","","","","","","","","","","","","","","","","","",""
"","iti_localizer","","html-keyboard-response","129","674976","0.0-2.0-21.0-1.0","35","85508","female","null","","","","null","","19","","","674655","1","","","","","","300","9500","321","10136","300","","","","","","","","","","","","","","","","","","","","","","","","","","","","","","","","","","","","","","","","","","","","","","","","","","","","",""
"","localizer","","html-keyboard-response","130","675404","0.0-2.0-22.0-0.0","35","85508","female","409","","","","68","0","20","","Stimuli/Experimental_stims/localizer/faces/toa-heftiba-2O1EUSTRBrY-unsplash.jpg","674976","1","faces","","1","0","0","400","9800","428","10457","","","","","","","","","","","","","","","","","","","","","","","","","","","","","","","","","","","","","","","","","","","","","","","","","","","","","",""
"","iti_localizer","","html-keyboard-response","131","675717","0.0-2.0-22.0-1.0","35","85508","female","null","","","","null","","20","","","675404","1","","","","","","300","10200","313","10885","300","","","","","","","","","","","","","","","","","","","","","","","","","","","","","","","","","","","","","","","","","","","","","","","","","","","","",""
"","localizer","","html-keyboard-response","132","676136","0.0-2.0-23.0-0.0","35","85508","female","19","","","","75","1","21","","Stimuli/Experimental_stims/localizer/faces/darshan-patel-QJEVpydulGs-unsplash.jpg","675717","1","faces","","0","0","0","400","10500","419","11198","","","","","","","","","","","","","","","","","","","","","","","","","","","","","","","","","","","","","","","","","","","","","","","","","","","","","",""
"","iti_localizer","","html-keyboard-response","133","676457","0.0-2.0-23.0-1.0","35","85508","female","null","","","","null","","21","","","676136","1","","","","","","300","10900","321","11617","300","","","","","","","","","","","","","","","","","","","","","","","","","","","","","","","","","","","","","","","","","","","","","","","","","","","","",""
"","localizer","","html-keyboard-response","134","676872","0.0-2.0-24.0-0.0","35","85508","female","NaN","","","","null","NaN","22","","Stimuli/Experimental_stims/localizer/faces/mubariz-mehdizadeh-o-wlIFT4zE4-unsplash.jpg","676457","1","faces","","0","1","0","400","11200","415","11938","","","","","","","","","","","","","","","","","","","","","","","","","","","","","","","","","","","","","","","","","","","","","","","","","","","","","",""
"","iti_localizer","","html-keyboard-response","135","677258","0.0-2.0-24.0-1.0","35","85508","female","null","","","","null","","22","","","676872","1","","","","","","300","11600","386","12353","300","","","","","","","","","","","","","","","","","","","","","","","","","","","","","","","","","","","","","","","","","","","","","","","","","","","","",""
"","localizer","","html-keyboard-response","136","677680","0.0-2.0-25.0-0.0","35","85508","female","NaN","","","","null","NaN","23","","Stimuli/Experimental_stims/localizer/faces/midas-hofstra-tidSLv-UaNs-unsplash.jpg","677258","1","faces","","0","1","0","400","11900","422","12739","","","","","","","","","","","","","","","","","","","","","","","","","","","","","","","","","","","","","","","","","","","","","","","","","","","","","",""
"","iti_localizer","","html-keyboard-response","137","677995","0.0-2.0-25.0-1.0","35","85508","female","null","","","","null","","23","","","677680","1","","","","","","300","12300","315","13161","300","","","","","","","","","","","","","","","","","","","","","","","","","","","","","","","","","","","","","","","","","","","","","","","","","","","","",""
"","localizer","","html-keyboard-response","138","678410","0.0-2.0-26.0-0.0","35","85508","female","NaN","","","","null","NaN","24","","Stimuli/Experimental_stims/localizer/faces/toa-heftiba-O3ymvT7Wf9U-unsplash.jpg","677995","1","faces","","0","1","0","400","12600","415","13476","","","","","","","","","","","","","","","","","","","","","","","","","","","","","","","","","","","","","","","","","","","","","","","","","","","","","",""
"","iti_localizer","","html-keyboard-response","139","678750","0.0-2.0-26.0-1.0","35","85508","female","null","","","","null","","24","","","678410","1","","","","","","300","13000","340","13891","300","","","","","","","","","","","","","","","","","","","","","","","","","","","","","","","","","","","","","","","","","","","","","","","","","","","","",""
"","localizer","","html-keyboard-response","140","679188","0.0-2.0-27.0-0.0","35","85508","female","NaN","","","","null","NaN","25","","Stimuli/Experimental_stims/localizer/faces/katsiaryna-endruszkiewicz-BteCp6aq4GI-unsplash.jpg","678750","1","faces","","0","1","0","400","13300","438","14231","","","","","","","","","","","","","","","","","","","","","","","","","","","","","","","","","","","","","","","","","","","","","","","","","","","","","",""
"","iti_localizer","","html-keyboard-response","141","693231","0.0-2.0-27.0-1.0","35","85508","female","null","","","","null","","25","","","679188","1","","","","","","14000","13700","14043","14669","14000","","","","","","","","","","","","","","","","","","","","","","","","","","","","","","","","","","","","","","","","","","","","","","","","","","","","",""
"","localizer","","html-keyboard-response","142","693658","0.0-2.0-28.0-0.0","35","85508","female","NaN","","","","null","NaN","26","","Stimuli/Experimental_stims/localizer/outdoor_scenes/jaanus-jagomagi-FddgewYQF2M-unsplash.jpg","693231","1","outdoor_scenes","","0","1","0","400","27700","427","28712","","","","","","","","","","","","","","","","","","","","","","","","","","","","","","","","","","","","","","","","","","","","","","","","","","","","","",""
"","iti_localizer","","html-keyboard-response","143","693977","0.0-2.0-28.0-1.0","35","85508","female","null","","","","null","","26","","","693658","1","","","","","","300","28100","319","29139","300","","","","","","","","","","","","","","","","","","","","","","","","","","","","","","","","","","","","","","","","","","","","","","","","","","","","",""
"","localizer","","html-keyboard-response","144","694401","0.0-2.0-29.0-0.0","35","85508","female","NaN","","","","null","NaN","27","","Stimuli/Experimental_stims/localizer/outdoor_scenes/v2osk-1Z2niiBPg5A-unsplash.jpg","693977","1","outdoor_scenes","","1","1","0","400","28400","424","29458","","","","","","","","","","","","","","","","","","","","","","","","","","","","","","","","","","","","","","","","","","","","","","","","","","","","","",""
"","iti_localizer","","html-keyboard-response","145","694720","0.0-2.0-29.0-1.0","35","85508","female","null","","","","null","","27","","","694401","1","","","","","","300","28800","319","29882","300","","","","","","","","","","","","","","","","","","","","","","","","","","","","","","","","","","","","","","","","","","","","","","","","","","","","",""
"","localizer","","html-keyboard-response","146","695153","0.0-2.0-30.0-0.0","35","85508","female","NaN","","","","null","NaN","28","","Stimuli/Experimental_stims/localizer/outdoor_scenes/wai-siew-mTFyV8oNDzU-unsplash.jpg","694720","1","outdoor_scenes","","0","1","0","400","29100","433","30201","","","","","","","","","","","","","","","","","","","","","","","","","","","","","","","","","","","","","","","","","","","","","","","","","","","","","",""
"","iti_localizer","","html-keyboard-response","147","695563","0.0-2.0-30.0-1.0","35","85508","female","null","","","","null","","28","","","695153","1","","","","","","300","29500","410","30634","300","","","","","","","","","","","","","","","","","","","","","","","","","","","","","","","","","","","","","","","","","","","","","","","","","","","","",""
"","localizer","","html-keyboard-response","148","695992","0.0-2.0-31.0-0.0","35","85508","female","NaN","","","","null","NaN","29","","Stimuli/Experimental_stims/localizer/outdoor_scenes/jay-cai-F_laX9E8CUo-unsplash.jpg","695563","1","outdoor_scenes","","0","1","0","400","29800","429","31044","","","","","","","","","","","","","","","","","","","","","","","","","","","","","","","","","","","","","","","","","","","","","","","","","","","","","",""
"","iti_localizer","","html-keyboard-response","149","696302","0.0-2.0-31.0-1.0","35","85508","female","null","","","","null","","29","","","695992","1","","","","","","300","30200","310","31473","300","","","","","","","","","","","","","","","","","","","","","","","","","","","","","","","","","","","","","","","","","","","","","","","","","","","","",""
"","localizer","","html-keyboard-response","150","696719","0.0-2.0-32.0-0.0","35","85508","female","NaN","","","","null","NaN","30","","Stimuli/Experimental_stims/localizer/outdoor_scenes/jeremy-cai-ucYWe5mzTMU-unsplash.jpg","696302","1","outdoor_scenes","","0","1","0","400","30500","417","31783","","","","","","","","","","","","","","","","","","","","","","","","","","","","","","","","","","","","","","","","","","","","","","","","","","","","","",""
"","iti_localizer","","html-keyboard-response","151","697030","0.0-2.0-32.0-1.0","35","85508","female","null","","","","null","","30","","","696719","1","","","","","","300","30900","311","32200","300","","","","","","","","","","","","","","","","","","","","","","","","","","","","","","","","","","","","","","","","","","","","","","","","","","","","",""
"","localizer","","html-keyboard-response","152","697457","0.0-2.0-33.0-0.0","35","85508","female","NaN","","","","null","NaN","31","","Stimuli/Experimental_stims/localizer/outdoor_scenes/erol-ahmed-d3pTF3r_hwY-unsplash.jpg","697030","1","outdoor_scenes","","0","1","0","400","31200","427","32511","","","","","","","","","","","","","","","","","","","","","","","","","","","","","","","","","","","","","","","","","","","","","","","","","","","","","",""
"","iti_localizer","","html-keyboard-response","153","697769","0.0-2.0-33.0-1.0","35","85508","female","null","","","","null","","31","","","697457","1","","","","","","300","31600","312","32938","300","","","","","","","","","","","","","","","","","","","","","","","","","","","","","","","","","","","","","","","","","","","","","","","","","","","","",""
"","localizer","","html-keyboard-response","154","698191","0.0-2.0-34.0-0.0","35","85508","female","NaN","","","","null","NaN","32","","Stimuli/Experimental_stims/localizer/outdoor_scenes/quino-al-vmZ2DehWQ3Q-unsplash.jpg","697769","1","outdoor_scenes","","0","1","0","400","31900","422","33250","","","","","","","","","","","","","","","","","","","","","","","","","","","","","","","","","","","","","","","","","","","","","","","","","","","","","",""
"","iti_localizer","","html-keyboard-response","155","698507","0.0-2.0-34.0-1.0","35","85508","female","null","","","","null","","32","","","698191","1","","","","","","300","32300","316","33672","300","","","","","","","","","","","","","","","","","","","","","","","","","","","","","","","","","","","","","","","","","","","","","","","","","","","","",""
"","localizer","","html-keyboard-response","156","699003","0.0-2.0-35.0-0.0","35","85508","female","6","","","","68","0","33","","Stimuli/Experimental_stims/localizer/outdoor_scenes/kenneth-thewissen-D76DklsG-5U-unsplash.jpg","698507","1","outdoor_scenes","","0","0","1","400","32600","496","33988","","","","","","","","","","","","","","","","","","","","","","","","","","","","","","","","","","","","","","","","","","","","","","","","","","","","","",""
"","iti_localizer","","html-keyboard-response","157","699327","0.0-2.0-35.0-1.0","35","85508","female","null","","","","null","","33","","","699003","1","","","","","","300","33000","324","34484","300","","","","","","","","","","","","","","","","","","","","","","","","","","","","","","","","","","","","","","","","","","","","","","","","","","","","",""
"","localizer","","html-keyboard-response","158","699743","0.0-2.0-36.0-0.0","35","85508","female","42","","","","68","0","34","","Stimuli/Experimental_stims/localizer/outdoor_scenes/johny-goerend-U_diPCXCBxU-unsplash.jpg","699327","1","outdoor_scenes","","0","0","1","400","33300","416","34808","","","","","","","","","","","","","","","","","","","","","","","","","","","","","","","","","","","","","","","","","","","","","","","","","","","","","",""
"","iti_localizer","","html-keyboard-response","159","700067","0.0-2.0-36.0-1.0","35","85508","female","null","","","","null","","34","","","699743","1","","","","","","300","33700","324","35224","300","","","","","","","","","","","","","","","","","","","","","","","","","","","","","","","","","","","","","","","","","","","","","","","","","","","","",""
"","localizer","","html-keyboard-response","160","700494","0.0-2.0-37.0-0.0","35","85508","female","322","","","","68","0","35","","Stimuli/Experimental_stims/localizer/outdoor_scenes/ken-cheung-KonWFWUaAuk-unsplash.jpg","700067","1","outdoor_scenes","","0","0","1","400","34000","427","35548","","","","","","","","","","","","","","","","","","","","","","","","","","","","","","","","","","","","","","","","","","","","","","","","","","","","","",""
"","iti_localizer","","html-keyboard-response","161","700806","0.0-2.0-37.0-1.0","35","85508","female","null","","","","null","","35","","","700494","1","","","","","","300","34400","312","35975","300","","","","","","","","","","","","","","","","","","","","","","","","","","","","","","","","","","","","","","","","","","","","","","","","","","","","",""
"","localizer","","html-keyboard-response","162","701226","0.0-2.0-38.0-0.0","35","85508","female","341","","","","68","0","36","","Stimuli/Experimental_stims/localizer/outdoor_scenes/alessio-furlan-Vw3a0HgE7AM-unsplash.jpg","700806","1","outdoor_scenes","","0","0","1","400","34700","420","36287","","","","","","","","","","","","","","","","","","","","","","","","","","","","","","","","","","","","","","","","","","","","","","","","","","","","","",""
"","iti_localizer","","html-keyboard-response","163","701534","0.0-2.0-38.0-1.0","35","85508","female","null","","","","null","","36","","","701226","1","","","","","","300","35100","308","36707","300","","","","","","","","","","","","","","","","","","","","","","","","","","","","","","","","","","","","","","","","","","","","","","","","","","","","",""
"","localizer","","html-keyboard-response","164","701950","0.0-2.0-39.0-0.0","35","85508","female","NaN","","","","null","NaN","37","","Stimuli/Experimental_stims/localizer/outdoor_scenes/ricardo-gomez-angel-dTSaC-S-7fs-unsplash.jpg","701534","1","outdoor_scenes","","0","1","0","400","35400","416","37015","","","","","","","","","","","","","","","","","","","","","","","","","","","","","","","","","","","","","","","","","","","","","","","","","","","","","",""
"","iti_localizer","","html-keyboard-response","165","702281","0.0-2.0-39.0-1.0","35","85508","female","null","","","","null","","37","","","701950","1","","","","","","300","35800","331","37431","300","","","","","","","","","","","","","","","","","","","","","","","","","","","","","","","","","","","","","","","","","","","","","","","","","","","","",""
"","localizer","","html-keyboard-response","166","702707","0.0-2.0-40.0-0.0","35","85508","female","NaN","","","","null","NaN","38","","Stimuli/Experimental_stims/localizer/outdoor_scenes/samuel-ferrara-IEHPDNk2-8w-unsplash.jpg","702281","1","outdoor_scenes","","0","1","0","400","36100","426","37762","","","","","","","","","","","","","","","","","","","","","","","","","","","","","","","","","","","","","","","","","","","","","","","","","","","","","",""
"","iti_localizer","","html-keyboard-response","167","703026","0.0-2.0-40.0-1.0","35","85508","female","null","","","","null","","38","","","702707","1","","","","","","300","36500","319","38188","300","","","","","","","","","","","","","","","","","","","","","","","","","","","","","","","","","","","","","","","","","","","","","","","","","","","","",""
"","localizer","","html-keyboard-response","168","703498","0.0-2.0-41.0-0.0","35","85508","female","NaN","","","","null","NaN","39","","Stimuli/Experimental_stims/localizer/outdoor_scenes/pietro-de-grandi-T7K4aEPoGGk-unsplash.jpg","703026","1","outdoor_scenes","","0","1","0","400","36800","472","38507","","","","","","","","","","","","","","","","","","","","","","","","","","","","","","","","","","","","","","","","","","","","","","","","","","","","","",""
"","iti_localizer","","html-keyboard-response","169","703814","0.0-2.0-41.0-1.0","35","85508","female","null","","","","null","","39","","","703498","1","","","","","","300","37200","316","38979","300","","","","","","","","","","","","","","","","","","","","","","","","","","","","","","","","","","","","","","","","","","","","","","","","","","","","",""
"","localizer","","html-keyboard-response","170","704232","0.0-2.0-42.0-0.0","35","85508","female","NaN","","","","null","NaN","40","","Stimuli/Experimental_stims/localizer/outdoor_scenes/tomasz-filipek-CUWC-6MRcNg-unsplash.jpg","703814","1","outdoor_scenes","","0","1","0","400","37500","418","39295","","","","","","","","","","","","","","","","","","","","","","","","","","","","","","","","","","","","","","","","","","","","","","","","","","","","","",""
"","iti_localizer","","html-keyboard-response","171","704547","0.0-2.0-42.0-1.0","35","85508","female","null","","","","null","","40","","","704232","1","","","","","","300","37900","315","39713","300","","","","","","","","","","","","","","","","","","","","","","","","","","","","","","","","","","","","","","","","","","","","","","","","","","","","",""
"","localizer","","html-keyboard-response","172","704969","0.0-2.0-43.0-0.0","35","85508","female","NaN","","","","null","NaN","41","","Stimuli/Experimental_stims/localizer/outdoor_scenes/cayetano-gil-rguHxZmOF5U-unsplash.jpg","704547","1","outdoor_scenes","","0","1","0","400","38200","422","40028","","","","","","","","","","","","","","","","","","","","","","","","","","","","","","","","","","","","","","","","","","","","","","","","","","","","","",""
"","iti_localizer","","html-keyboard-response","173","705280","0.0-2.0-43.0-1.0","35","85508","female","null","","","","null","","41","","","704969","1","","","","","","300","38600","311","40450","300","","","","","","","","","","","","","","","","","","","","","","","","","","","","","","","","","","","","","","","","","","","","","","","","","","","","",""
"","localizer","","html-keyboard-response","174","705700","0.0-2.0-44.0-0.0","35","85508","female","NaN","","","","null","NaN","42","","Stimuli/Experimental_stims/localizer/outdoor_scenes/nikola-majksner-hXNGeAFOgT4-unsplash.jpg","705280","1","outdoor_scenes","","0","1","0","400","38900","420","40761","","","","","","","","","","","","","","","","","","","","","","","","","","","","","","","","","","","","","","","","","","","","","","","","","","","","","",""
"","iti_localizer","","html-keyboard-response","175","706021","0.0-2.0-44.0-1.0","35","85508","female","null","","","","null","","42","","","705700","1","","","","","","300","39300","321","41181","300","","","","","","","","","","","","","","","","","","","","","","","","","","","","","","","","","","","","","","","","","","","","","","","","","","","","",""
"","localizer","","html-keyboard-response","176","706438","0.0-2.0-45.0-0.0","35","85508","female","NaN","","","","null","NaN","43","","Stimuli/Experimental_stims/localizer/outdoor_scenes/wil-stewart-pHANr-CpbYM-unsplash.jpg","706021","1","outdoor_scenes","","1","1","0","400","39600","417","41502","","","","","","","","","","","","","","","","","","","","","","","","","","","","","","","","","","","","","","","","","","","","","","","","","","","","","",""
"","iti_localizer","","html-keyboard-response","177","706760","0.0-2.0-45.0-1.0","35","85508","female","null","","","","null","","43","","","706438","1","","","","","","300","40000","322","41919","300","","","","","","","","","","","","","","","","","","","","","","","","","","","","","","","","","","","","","","","","","","","","","","","","","","","","",""
"","localizer","","html-keyboard-response","178","707236","0.0-2.0-46.0-0.0","35","85508","female","19","","","","75","1","44","","Stimuli/Experimental_stims/localizer/outdoor_scenes/chang-qing-2YQoKbyGvDc-unsplash.jpg","706760","1","outdoor_scenes","","0","0","0","400","40300","476","42241","","","","","","","","","","","","","","","","","","","","","","","","","","","","","","","","","","","","","","","","","","","","","","","","","","","","","",""
"","iti_localizer","","html-keyboard-response","179","707545","0.0-2.0-46.0-1.0","35","85508","female","null","","","","null","","44","","","707236","1","","","","","","300","40700","309","42717","300","","","","","","","","","","","","","","","","","","","","","","","","","","","","","","","","","","","","","","","","","","","","","","","","","","","","",""
"","localizer","","html-keyboard-response","180","707961","0.0-2.0-47.0-0.0","35","85508","female","NaN","","","","null","NaN","45","","Stimuli/Experimental_stims/localizer/outdoor_scenes/solotravelgoals-7kLufxYoqWk-unsplash.jpg","707545","1","outdoor_scenes","","0","1","0","400","41000","416","43026","","","","","","","","","","","","","","","","","","","","","","","","","","","","","","","","","","","","","","","","","","","","","","","","","","","","","",""
"","iti_localizer","","html-keyboard-response","181","721984","0.0-2.0-47.0-1.0","35","85508","female","null","","","","null","","45","","","707961","1","","","","","","14000","41400","14023","43442","14000","","","","","","","","","","","","","","","","","","","","","","","","","","","","","","","","","","","","","","","","","","","","","","","","","","","","",""
"","localizer","","html-keyboard-response","182","722404","0.0-2.0-48.0-0.0","35","85508","female","NaN","","","","null","NaN","46","","Stimuli/Experimental_stims/localizer/body_parts/jeremy-bishop-mLd3hAaH2ns-unsplash.jpg","721984","1","body_parts","","0","1","0","400","55400","420","57465","","","","","","","","","","","","","","","","","","","","","","","","","","","","","","","","","","","","","","","","","","","","","","","","","","","","","",""
"","iti_localizer","","html-keyboard-response","183","722714","0.0-2.0-48.0-1.0","35","85508","female","null","","","","null","","46","","","722404","1","","","","","","300","55800","310","57885","300","","","","","","","","","","","","","","","","","","","","","","","","","","","","","","","","","","","","","","","","","","","","","","","","","","","","",""
"","localizer","","html-keyboard-response","184","723144","0.0-2.0-49.0-0.0","35","85508","female","307","","","","68","0","47","","Stimuli/Experimental_stims/localizer/body_parts/lilartsy-1KkhQ8uL28g-unsplash.jpg","722714","1","body_parts","","0","0","1","400","56100","430","58195","","","","","","","","","","","","","","","","","","","","","","","","","","","","","","","","","","","","","","","","","","","","","","","","","","","","","",""
"","iti_localizer","","html-keyboard-response","185","723508","0.0-2.0-49.0-1.0","35","85508","female","null","","","","null","","47","","","723144","1","","","","","","300","56500","364","58625","300","","","","","","","","","","","","","","","","","","","","","","","","","","","","","","","","","","","","","","","","","","","","","","","","","","","","",""
"","localizer","","html-keyboard-response","186","723931","0.0-2.0-50.0-0.0","35","85508","female","298","","","","68","0","48","","Stimuli/Experimental_stims/localizer/body_parts/toa-heftiba-qxvWnfHb3-M-unsplash.jpg","723508","1","body_parts","","0","0","1","400","56800","423","58989","","","","","","","","","","","","","","","","","","","","","","","","","","","","","","","","","","","","","","","","","","","","","","","","","","","","","",""
"","iti_localizer","","html-keyboard-response","187","724268","0.0-2.0-50.0-1.0","35","85508","female","null","","","","null","","48","","","723931","1","","","","","","300","57200","337","59412","300","","","","","","","","","","","","","","","","","","","","","","","","","","","","","","","","","","","","","","","","","","","","","","","","","","","","",""
"","localizer","","html-keyboard-response","188","724685","0.0-2.0-51.0-0.0","35","85508","female","268","","","","68","0","49","","Stimuli/Experimental_stims/localizer/body_parts/callum-skelton-3KLMq7y46nA-unsplash.jpg","724268","1","body_parts","","1","0","0","400","57500","417","59749","","","","","","","","","","","","","","","","","","","","","","","","","","","","","","","","","","","","","","","","","","","","","","","","","","","","","",""
"","iti_localizer","","html-keyboard-response","189","724999","0.0-2.0-51.0-1.0","35","85508","female","null","","","","null","","49","","","724685","1","","","","","","300","57900","314","60166","300","","","","","","","","","","","","","","","","","","","","","","","","","","","","","","","","","","","","","","","","","","","","","","","","","","","","",""
"","localizer","","html-keyboard-response","190","725418","0.0-2.0-52.0-0.0","35","85508","female","114","","","","75","1","50","","Stimuli/Experimental_stims/localizer/body_parts/ant-rozetsky-bXQd8JXx0vs-unsplash.jpg","724999","1","body_parts","","0","0","0","400","58200","419","60480","","","","","","","","","","","","","","","","","","","","","","","","","","","","","","","","","","","","","","","","","","","","","","","","","","","","","",""
"","iti_localizer","","html-keyboard-response","191","725740","0.0-2.0-52.0-1.0","35","85508","female","null","","","","null","","50","","","725418","1","","","","","","300","58600","322","60899","300","","","","","","","","","","","","","","","","","","","","","","","","","","","","","","","","","","","","","","","","","","","","","","","","","","","","",""
"","localizer","","html-keyboard-response","192","726163","0.0-2.0-53.0-0.0","35","85508","female","NaN","","","","null","NaN","51","","Stimuli/Experimental_stims/localizer/body_parts/boyd-christiansen-uVj7kewrZ-o-unsplash.jpg","725740","1","body_parts","","0","1","0","400","58900","423","61221","","","","","","","","","","","","","","","","","","","","","","","","","","","","","","","","","","","","","","","","","","","","","","","","","","","","","",""
"","iti_localizer","","html-keyboard-response","193","726478","0.0-2.0-53.0-1.0","35","85508","female","null","","","","null","","51","","","726163","1","","","","","","300","59300","315","61644","300","","","","","","","","","","","","","","","","","","","","","","","","","","","","","","","","","","","","","","","","","","","","","","","","","","","","",""
"","localizer","","html-keyboard-response","194","726912","0.0-2.0-54.0-0.0","35","85508","female","NaN","","","","null","NaN","52","","Stimuli/Experimental_stims/localizer/body_parts/helen-ast-l2iY5Sh0mTg-unsplash.jpg","726478","1","body_parts","","0","1","0","400","59600","434","61959","","","","","","","","","","","","","","","","","","","","","","","","","","","","","","","","","","","","","","","","","","","","","","","","","","","","","",""
"","iti_localizer","","html-keyboard-response","195","727236","0.0-2.0-54.0-1.0","35","85508","female","null","","","","null","","52","","","726912","1","","","","","","300","60000","324","62393","300","","","","","","","","","","","","","","","","","","","","","","","","","","","","","","","","","","","","","","","","","","","","","","","","","","","","",""
"","localizer","","html-keyboard-response","196","727655","0.0-2.0-55.0-0.0","35","85508","female","NaN","","","","null","NaN","53","","Stimuli/Experimental_stims/localizer/body_parts/pure-julia-E9Q4bqYHtIM-unsplash.jpg","727236","1","body_parts","","0","1","0","400","60300","419","62717","","","","","","","","","","","","","","","","","","","","","","","","","","","","","","","","","","","","","","","","","","","","","","","","","","","","","",""
"","iti_localizer","","html-keyboard-response","197","727972","0.0-2.0-55.0-1.0","35","85508","female","null","","","","null","","53","","","727655","1","","","","","","300","60700","317","63136","300","","","","","","","","","","","","","","","","","","","","","","","","","","","","","","","","","","","","","","","","","","","","","","","","","","","","",""
"","localizer","","html-keyboard-response","198","728384","0.0-2.0-56.0-0.0","35","85508","female","24","","","","68","0","54","","Stimuli/Experimental_stims/localizer/body_parts/sina-rezakhani-d1gQi0Jl05U-unsplash (1).jpg","727972","1","body_parts","","0","0","1","400","61000","412","63453","","","","","","","","","","","","","","","","","","","","","","","","","","","","","","","","","","","","","","","","","","","","","","","","","","","","","",""
"","iti_localizer","","html-keyboard-response","199","728700","0.0-2.0-56.0-1.0","35","85508","female","null","","","","null","","54","","","728384","1","","","","","","300","61400","316","63865","300","","","","","","","","","","","","","","","","","","","","","","","","","","","","","","","","","","","","","","","","","","","","","","","","","","","","",""
"","localizer","","html-keyboard-response","200","729121","0.0-2.0-57.0-0.0","35","85508","female","148","","","","68","0","55","","Stimuli/Experimental_stims/localizer/body_parts/megan-menegay-UojxG_BJxnI-unsplash.jpg","728700","1","body_parts","","0","0","1","400","61700","421","64181","","","","","","","","","","","","","","","","","","","","","","","","","","","","","","","","","","","","","","","","","","","","","","","","","","","","","",""
"","iti_localizer","","html-keyboard-response","201","729444","0.0-2.0-57.0-1.0","35","85508","female","null","","","","null","","55","","","729121","1","","","","","","300","62100","323","64602","300","","","","","","","","","","","","","","","","","","","","","","","","","","","","","","","","","","","","","","","","","","","","","","","","","","","","",""
"","localizer","","html-keyboard-response","202","729864","0.0-2.0-58.0-0.0","35","85508","female","241","","","","68","0","56","","Stimuli/Experimental_stims/localizer/body_parts/sincerely-media-7TBFwUQA6Xk-unsplash.jpg","729444","1","body_parts","","0","0","1","400","62400","420","64925","","","","","","","","","","","","","","","","","","","","","","","","","","","","","","","","","","","","","","","","","","","","","","","","","","","","","",""
"","iti_localizer","","html-keyboard-response","203","730200","0.0-2.0-58.0-1.0","35","85508","female","null","","","","null","","56","","","729864","1","","","","","","300","62800","336","65345","300","","","","","","","","","","","","","","","","","","","","","","","","","","","","","","","","","","","","","","","","","","","","","","","","","","","","",""
"","localizer","","html-keyboard-response","204","730613","0.0-2.0-59.0-0.0","35","85508","female","221","","","","68","0","57","","Stimuli/Experimental_stims/localizer/body_parts/sincerely-media-pdynOoM7xmA-unsplash.jpg","730200","1","body_parts","","0","0","1","400","63100","413","65681","","","","","","","","","","","","","","","","","","","","","","","","","","","","","","","","","","","","","","","","","","","","","","","","","","","","","",""
"","iti_localizer","","html-keyboard-response","205","730927","0.0-2.0-59.0-1.0","35","85508","female","null","","","","null","","57","","","730613","1","","","","","","300","63500","314","66094","300","","","","","","","","","","","","","","","","","","","","","","","","","","","","","","","","","","","","","","","","","","","","","","","","","","","","",""
"","localizer","","html-keyboard-response","206","731366","0.0-2.0-60.0-0.0","35","85508","female","122","","","","68","0","58","","Stimuli/Experimental_stims/localizer/body_parts/adrien-king-XzBluXxBoyQ-unsplash.jpg","730927","1","body_parts","","0","0","1","400","63800","439","66408","","","","","","","","","","","","","","","","","","","","","","","","","","","","","","","","","","","","","","","","","","","","","","","","","","","","","",""
"","iti_localizer","","html-keyboard-response","207","731689","0.0-2.0-60.0-1.0","35","85508","female","null","","","","null","","58","","","731366","1","","","","","","300","64200","323","66847","300","","","","","","","","","","","","","","","","","","","","","","","","","","","","","","","","","","","","","","","","","","","","","","","","","","","","",""
"","localizer","","html-keyboard-response","208","732107","0.0-2.0-61.0-0.0","35","85508","female","35","","","","68","0","59","","Stimuli/Experimental_stims/localizer/body_parts/nattalia-nunez-MB9sdDfZMSg-unsplash.jpg","731689","1","body_parts","","1","0","0","400","64500","418","67170","","","","","","","","","","","","","","","","","","","","","","","","","","","","","","","","","","","","","","","","","","","","","","","","","","","","","",""
"","iti_localizer","","html-keyboard-response","209","732444","0.0-2.0-61.0-1.0","35","85508","female","null","","","","null","","59","","","732107","1","","","","","","300","64900","337","67588","300","","","","","","","","","","","","","","","","","","","","","","","","","","","","","","","","","","","","","","","","","","","","","","","","","","","","",""
"","localizer","","html-keyboard-response","210","732871","0.0-2.0-62.0-0.0","35","85508","female","88","","","","75","1","60","","Stimuli/Experimental_stims/localizer/body_parts/louis-hansel-FjKTMRTQYAs-unsplash.jpg","732444","1","body_parts","","0","0","0","400","65200","427","67925","","","","","","","","","","","","","","","","","","","","","","","","","","","","","","","","","","","","","","","","","","","","","","","","","","","","","",""
"","iti_localizer","","html-keyboard-response","211","733200","0.0-2.0-62.0-1.0","35","85508","female","null","","","","null","","60","","","732871","1","","","","","","300","65600","329","68352","300","","","","","","","","","","","","","","","","","","","","","","","","","","","","","","","","","","","","","","","","","","","","","","","","","","","","",""
"","localizer","","html-keyboard-response","212","733620","0.0-2.0-63.0-0.0","35","85508","female","NaN","","","","null","NaN","61","","Stimuli/Experimental_stims/localizer/body_parts/jonathan-borba-hTwH8QFkPMs-unsplash.jpg","733200","1","body_parts","","0","1","0","400","65900","420","68681","","","","","","","","","","","","","","","","","","","","","","","","","","","","","","","","","","","","","","","","","","","","","","","","","","","","","",""
"","iti_localizer","","html-keyboard-response","213","733931","0.0-2.0-63.0-1.0","35","85508","female","null","","","","null","","61","","","733620","1","","","","","","300","66300","311","69101","300","","","","","","","","","","","","","","","","","","","","","","","","","","","","","","","","","","","","","","","","","","","","","","","","","","","","",""
"","localizer","","html-keyboard-response","214","734346","0.0-2.0-64.0-0.0","35","85508","female","NaN","","","","null","NaN","62","","Stimuli/Experimental_stims/localizer/body_parts/hu-chen-tCbTGNwrFNM-unsplash.jpg","733931","1","body_parts","","0","1","0","400","66600","415","69412","","","","","","","","","","","","","","","","","","","","","","","","","","","","","","","","","","","","","","","","","","","","","","","","","","","","","",""
"","iti_localizer","","html-keyboard-response","215","734668","0.0-2.0-64.0-1.0","35","85508","female","null","","","","null","","62","","","734346","1","","","","","","300","67000","322","69827","300","","","","","","","","","","","","","","","","","","","","","","","","","","","","","","","","","","","","","","","","","","","","","","","","","","","","",""
"","localizer","","html-keyboard-response","216","735087","0.0-2.0-65.0-0.0","35","85508","female","NaN","","","","null","NaN","63","","Stimuli/Experimental_stims/localizer/body_parts/danie-franco-jyyNiSEcCl4-unsplash.jpg","734668","1","body_parts","","0","1","0","400","67300","419","70149","","","","","","","","","","","","","","","","","","","","","","","","","","","","","","","","","","","","","","","","","","","","","","","","","","","","","",""
"","iti_localizer","","html-keyboard-response","217","735420","0.0-2.0-65.0-1.0","35","85508","female","null","","","","null","","63","","","735087","1","","","","","","300","67700","333","70568","300","","","","","","","","","","","","","","","","","","","","","","","","","","","","","","","","","","","","","","","","","","","","","","","","","","","","",""
"","localizer","","html-keyboard-response","218","735836","0.0-2.0-66.0-0.0","35","85508","female","NaN","","","","null","NaN","64","","Stimuli/Experimental_stims/localizer/body_parts/natalie-grainger-8uB5kFKWWkk-unsplash.jpg","735420","1","body_parts","","0","1","0","400","68000","416","70901","","","","","","","","","","","","","","","","","","","","","","","","","","","","","","","","","","","","","","","","","","","","","","","","","","","","","",""
"","iti_localizer","","html-keyboard-response","219","736170","0.0-2.0-66.0-1.0","35","85508","female","null","","","","null","","64","","","735836","1","","","","","","300","68400","334","71317","300","","","","","","","","","","","","","","","","","","","","","","","","","","","","","","","","","","","","","","","","","","","","","","","","","","","","",""
"","localizer","","html-keyboard-response","220","736592","0.0-2.0-67.0-0.0","35","85508","female","NaN","","","","null","NaN","65","","Stimuli/Experimental_stims/localizer/body_parts/apostolos-vamvouras-g5wKHRu2QW0-unsplash.jpg","736170","1","body_parts","","0","1","0","400","68700","422","71651","","","","","","","","","","","","","","","","","","","","","","","","","","","","","","","","","","","","","","","","","","","","","","","","","","","","","",""
"","iti_localizer","","html-keyboard-response","221","750618","0.0-2.0-67.0-1.0","35","85508","female","null","","","","null","","65","","","736592","1","","","","","","14000","69100","14026","72073","14000","","","","","","","","","","","","","","","","","","","","","","","","","","","","","","","","","","","","","","","","","","","","","","","","","","","","",""
"","localizer","","html-keyboard-response","222","751039","0.0-2.0-68.0-0.0","35","85508","female","NaN","","","","null","NaN","66","","Stimuli/Experimental_stims/localizer/objects/quaritsch-photography-lZ8onQ1wuY8-unsplash.jpg","750618","1","objects","","1","1","0","400","83100","421","86099","","","","","","","","","","","","","","","","","","","","","","","","","","","","","","","","","","","","","","","","","","","","","","","","","","","","","",""
"","iti_localizer","","html-keyboard-response","223","751373","0.0-2.0-68.0-1.0","35","85508","female","null","","","","null","","66","","","751039","1","","","","","","300","83500","334","86520","300","","","","","","","","","","","","","","","","","","","","","","","","","","","","","","","","","","","","","","","","","","","","","","","","","","","","",""
"","localizer","","html-keyboard-response","224","751798","0.0-2.0-69.0-0.0","35","85508","female","NaN","","","","null","NaN","67","","Stimuli/Experimental_stims/localizer/objects/ana-9GmAaEMMKho-unsplash.jpg","751373","1","objects","","0","1","0","400","83800","425","86854","","","","","","","","","","","","","","","","","","","","","","","","","","","","","","","","","","","","","","","","","","","","","","","","","","","","","",""
"","iti_localizer","","html-keyboard-response","225","752105","0.0-2.0-69.0-1.0","35","85508","female","null","","","","null","","67","","","751798","1","","","","","","300","84200","307","87279","300","","","","","","","","","","","","","","","","","","","","","","","","","","","","","","","","","","","","","","","","","","","","","","","","","","","","",""
"","localizer","","html-keyboard-response","226","752525","0.0-2.0-70.0-0.0","35","85508","female","126","","","","68","0","68","","Stimuli/Experimental_stims/localizer/objects/nordwood-themes-nDd3dIkkOLo-unsplash.jpg","752105","1","objects","","0","0","1","400","84500","420","87586","","","","","","","","","","","","","","","","","","","","","","","","","","","","","","","","","","","","","","","","","","","","","","","","","","","","","",""
"","iti_localizer","","html-keyboard-response","227","752838","0.0-2.0-70.0-1.0","35","85508","female","null","","","","null","","68","","","752525","1","","","","","","300","84900","313","88006","300","","","","","","","","","","","","","","","","","","","","","","","","","","","","","","","","","","","","","","","","","","","","","","","","","","","","",""
"","localizer","","html-keyboard-response","228","753270","0.0-2.0-71.0-0.0","35","85508","female","20","","","","68","0","69","","Stimuli/Experimental_stims/localizer/objects/kelly-jean-cKjbI0Y00X0-unsplash.jpg","752838","1","objects","","0","0","1","400","85200","432","88319","","","","","","","","","","","","","","","","","","","","","","","","","","","","","","","","","","","","","","","","","","","","","","","","","","","","","",""
"","iti_localizer","","html-keyboard-response","229","753597","0.0-2.0-71.0-1.0","35","85508","female","null","","","","null","","69","","","753270","1","","","","","","300","85600","327","88751","300","","","","","","","","","","","","","","","","","","","","","","","","","","","","","","","","","","","","","","","","","","","","","","","","","","","","",""
"","localizer","","html-keyboard-response","230","754017","0.0-2.0-72.0-0.0","35","85508","female","12","","","","68","0","70","","Stimuli/Experimental_stims/localizer/objects/florian-klauer-nptLmg6jqDo-unsplash.jpg","753597","1","objects","","0","0","1","400","85900","420","89078","","","","","","","","","","","","","","","","","","","","","","","","","","","","","","","","","","","","","","","","","","","","","","","","","","","","","",""
"","iti_localizer","","html-keyboard-response","231","754343","0.0-2.0-72.0-1.0","35","85508","female","null","","","","null","","70","","","754017","1","","","","","","300","86300","326","89498","300","","","","","","","","","","","","","","","","","","","","","","","","","","","","","","","","","","","","","","","","","","","","","","","","","","","","",""
"","localizer","","html-keyboard-response","232","754763","0.0-2.0-73.0-0.0","35","85508","female","NaN","","","","null","NaN","71","","Stimuli/Experimental_stims/localizer/objects/nicolas-hippert-SVgX47QIUlc-unsplash.jpg","754343","1","objects","","0","1","0","400","86600","420","89824","","","","","","","","","","","","","","","","","","","","","","","","","","","","","","","","","","","","","","","","","","","","","","","","","","","","","",""
"","iti_localizer","","html-keyboard-response","233","755089","0.0-2.0-73.0-1.0","35","85508","female","null","","","","null","","71","","","754763","1","","","","","","300","87000","326","90244","300","","","","","","","","","","","","","","","","","","","","","","","","","","","","","","","","","","","","","","","","","","","","","","","","","","","","",""
"","localizer","","html-keyboard-response","234","755529","0.0-2.0-74.0-0.0","35","85508","female","NaN","","","","null","NaN","72","","Stimuli/Experimental_stims/localizer/objects/florian-klauer-mk7D-4UCfmg-unsplash.jpg","755089","1","objects","","0","1","0","400","87300","440","90570","","","","","","","","","","","","","","","","","","","","","","","","","","","","","","","","","","","","","","","","","","","","","","","","","","","","","",""
"","iti_localizer","","html-keyboard-response","235","755849","0.0-2.0-74.0-1.0","35","85508","female","null","","","","null","","72","","","755529","1","","","","","","300","87700","320","91010","300","","","","","","","","","","","","","","","","","","","","","","","","","","","","","","","","","","","","","","","","","","","","","","","","","","","","",""
"","localizer","","html-keyboard-response","236","756267","0.0-2.0-75.0-0.0","35","85508","female","62","","","","68","0","73","","Stimuli/Experimental_stims/localizer/objects/alex-lvrs-2zDw14yCYqk-unsplash.jpg","755849","1","objects","","0","0","1","400","88000","418","91330","","","","","","","","","","","","","","","","","","","","","","","","","","","","","","","","","","","","","","","","","","","","","","","","","","","","","",""
"","iti_localizer","","html-keyboard-response","237","756582","0.0-2.0-75.0-1.0","35","85508","female","null","","","","null","","73","","","756267","1","","","","","","300","88400","315","91748","300","","","","","","","","","","","","","","","","","","","","","","","","","","","","","","","","","","","","","","","","","","","","","","","","","","","","",""
"","localizer","","html-keyboard-response","238","757005","0.0-2.0-76.0-0.0","35","85508","female","31","","","","68","0","74","","Stimuli/Experimental_stims/localizer/objects/hipster-mum-XookgCxFw6Q-unsplash.jpg","756582","1","objects","","0","0","1","400","88700","423","92063","","","","","","","","","","","","","","","","","","","","","","","","","","","","","","","","","","","","","","","","","","","","","","","","","","","","","",""
"","iti_localizer","","html-keyboard-response","239","757319","0.0-2.0-76.0-1.0","35","85508","female","null","","","","null","","74","","","757005","1","","","","","","300","89100","314","92486","300","","","","","","","","","","","","","","","","","","","","","","","","","","","","","","","","","","","","","","","","","","","","","","","","","","","","",""
"","localizer","","html-keyboard-response","240","757740","0.0-2.0-77.0-0.0","35","85508","female","8","","","","68","0","75","","Stimuli/Experimental_stims/localizer/objects/ian-talmacs-ugqU0a4P18U-unsplash.jpg","757319","1","objects","","0","0","1","400","89400","421","92800","","","","","","","","","","","","","","","","","","","","","","","","","","","","","","","","","","","","","","","","","","","","","","","","","","","","","",""
"","iti_localizer","","html-keyboard-response","241","758055","0.0-2.0-77.0-1.0","35","85508","female","null","","","","null","","75","","","757740","1","","","","","","300","89800","315","93221","300","","","","","","","","","","","","","","","","","","","","","","","","","","","","","","","","","","","","","","","","","","","","","","","","","","","","",""
"","localizer","","html-keyboard-response","242","758480","0.0-2.0-78.0-0.0","35","85508","female","155","","","","68","0","76","","Stimuli/Experimental_stims/localizer/objects/chris-briggs-FobzAZJGM9M-unsplash.jpg","758055","1","objects","","0","0","1","400","90100","425","93536","","","","","","","","","","","","","","","","","","","","","","","","","","","","","","","","","","","","","","","","","","","","","","","","","","","","","",""
"","iti_localizer","","html-keyboard-response","243","758811","0.0-2.0-78.0-1.0","35","85508","female","null","","","","null","","76","","","758480","1","","","","","","300","90500","331","93961","300","","","","","","","","","","","","","","","","","","","","","","","","","","","","","","","","","","","","","","","","","","","","","","","","","","","","",""
"","localizer","","html-keyboard-response","244","759239","0.0-2.0-79.0-0.0","35","85508","female","3","","","","68","0","77","","Stimuli/Experimental_stims/localizer/objects/recha-oktaviani-t__61ap00Mc-unsplash.jpg","758811","1","objects","","0","0","1","400","90800","428","94292","","","","","","","","","","","","","","","","","","","","","","","","","","","","","","","","","","","","","","","","","","","","","","","","","","","","","",""
"","iti_localizer","","html-keyboard-response","245","759556","0.0-2.0-79.0-1.0","35","85508","female","null","","","","null","","77","","","759239","1","","","","","","300","91200","317","94720","300","","","","","","","","","","","","","","","","","","","","","","","","","","","","","","","","","","","","","","","","","","","","","","","","","","","","",""
