"success","ttype","start_time","trial_type","trial_index","time_elapsed","internal_node_id","age","PID","gender","rt","responses","view_history","repeat_instructions","key_press","response","index","stimulus_index","path","start_time_elapsed","run","task","isi","is_odd_ball","no_response","acc","duration","onset","duration_time_elapsed","onset_time_elapsed","trial_duration","missed_checkup","left_chosen","chosen_stimulus","unchosen_stimulus","chosen_category","unchosen_category","chosen_rating","unchosen_rating","chosen_path","unchosen_path","pair_id","practice","scramble_screen_time","scramble_instructed_side","stim_type","iti","block","left_stimulus","right_stimulus","left_category","right_category","left_path","right_path","left_rating","right_rating","scramble_acc","scramble_no_response","warning","stimulus_id","item_id","outcome","response_rt","deliberation_reward_tally","choice_type","gain_left","left_item_id","right_item_id","higher_outcome_chosen","chosen_left","old_pair","pair_type","old_response","pair_acc","reward_type","outcome_response","outcome_rt","outcome_acc","category","choice","deliberated_stim","old_rating","new_rating","total_reward_tally"
"true","full_screen","d08162023hr2052","fullscreen","0","10732","0.0-0.0-0.0","33","59186","male","","","","","","","","","","","","","","","","","","","","","","","","","","","","","","","","","","","","","","","","","","","","","","","","","","","","","","","","","","","","","","","","","","","","","","","","","",""
"","get_id","","survey-text","1","19277","0.0-0.0-1.0","33","59186","male","8523","{""Q0"":""33"",""Q1"":""male""}","","","","","","","","","","","","","","","","","","","","","","","","","","","","","","","","","","","","","","","","","","","","","","","","","","","","","","","","","","","","","","","","","","","","","","","",""
"","ratings_instructions","","instructions","2","28057","0.0-1.0-0.0-0.0","33","59186","male","8089","","[{""page_index"":0,""viewing_time"":5316},{""page_index"":1,""viewing_time"":2772}]","","","","","","","","","","","","","","","","","","","","","","","","","","","","","","","","","","","","","","","","","","","","","","","","","","","","","","","","","","","","","","","","","","","","","","",""
"","rating_comprehension_check","","survey-multi-choice","3","35397","0.0-1.0-0.0-1.0","33","59186","male","7315","{""Q0"":""True"",""Q1"":""Mouse""}","","0","","","","","","","","","","","","","","","","","","","","","","","","","","","","","","","","","","","","","","","","","","","","","","","","","","","","","","","","","","","","","","","","","","","","","",""
"","","","html-keyboard-response","4","38793","0.0-1.0-1.0","33","59186","male","3366","","","","68","","","","","","","","","","","","","","","","","","","","","","","","","","","","","","","","","","","","","","","","","","","","","","","","","","","","","","","","","","","","","","","","","","","","",""
"","rating","","html-slider-response","5","42424","0.0-1.0-2.0","33","59186","male","3603","","","","","66","0","11","Stimuli/Experimental_stims/outdoor_scenes/stephen-leonardi-gyIRjKPXupE-unsplash.jpg","","","","","","","","","","","","","","","","","","","","","","","","","","","","","","","","","","","","","","","","","","","","","","","","","","","","","","","","","","","","","","","","",""
"","rating","","html-slider-response","6","44837","0.0-1.0-3.0","33","59186","male","2389","","","","","23","1","37","Stimuli/Experimental_stims/objects/alexander-andrews-VLGWE_SumrA-unsplash.jpg","","","","","","","","","","","","","","","","","","","","","","","","","","","","","","","","","","","","","","","","","","","","","","","","","","","","","","","","","","","","","","","","",""
"","rating","","html-slider-response","7","46838","0.0-1.0-4.0","33","59186","male","1980","","","","","27","2","43","Stimuli/Experimental_stims/objects/jonathan-greenaway-Y4hGgeiFn3s-unsplash.jpg","","","","","","","","","","","","","","","","","","","","","","","","","","","","","","","","","","","","","","","","","","","","","","","","","","","","","","","","","","","","","","","","",""
"","rating","","html-slider-response","8","48603","0.0-1.0-5.0","33","59186","male","1744","","","","","24","3","45","Stimuli/Experimental_stims/objects/leohoho-rngTKHXumy0-unsplash.jpg","","","","","","","","","","","","","","","","","","","","","","","","","","","","","","","","","","","","","","","","","","","","","","","","","","","","","","","","","","","","","","","","",""
"","rating","","html-slider-response","9","50915","0.0-1.0-6.0","33","59186","male","2290","","","","","50","4","1","Stimuli/Experimental_stims/outdoor_scenes/ashim-d-silva-S2Q5mdOrrVc-unsplash.jpg","","","","","","","","","","","","","","","","","","","","","","","","","","","","","","","","","","","","","","","","","","","","","","","","","","","","","","","","","","","","","","","","",""
"","rating","","html-slider-response","10","53017","0.0-1.0-7.0","33","59186","male","2080","","","","","58","5","4","Stimuli/Experimental_stims/outdoor_scenes/jarrett-kow-1ZOyYPOBn7I-unsplash.jpg","","","","","","","","","","","","","","","","","","","","","","","","","","","","","","","","","","","","","","","","","","","","","","","","","","","","","","","","","","","","","","","","",""
"","rating","","html-slider-response","11","55476","0.0-1.0-8.0","33","59186","male","2436","","","","","22","6","35","Stimuli/Experimental_stims/body_parts/wc-so-KH4AAPjb-tI-unsplash.jpg","","","","","","","","","","","","","","","","","","","","","","","","","","","","","","","","","","","","","","","","","","","","","","","","","","","","","","","","","","","","","","","","",""
"","rating","","html-slider-response","12","57513","0.0-1.0-9.0","33","59186","male","2017","","","","","28","7","24","Stimuli/Experimental_stims/body_parts/clay-banks-LjqARJaJotc-unsplash.jpg","","","","","","","","","","","","","","","","","","","","","","","","","","","","","","","","","","","","","","","","","","","","","","","","","","","","","","","","","","","","","","","","",""
"","rating","","html-slider-response","13","59583","0.0-1.0-10.0","33","59186","male","2048","","","","","71","8","6","Stimuli/Experimental_stims/outdoor_scenes/meng-ji-8BH_M-53CyA-unsplash.jpg","","","","","","","","","","","","","","","","","","","","","","","","","","","","","","","","","","","","","","","","","","","","","","","","","","","","","","","","","","","","","","","","",""
"","rating","","html-slider-response","14","61779","0.0-1.0-11.0","33","59186","male","2176","","","","","71","9","3","Stimuli/Experimental_stims/outdoor_scenes/henry-be-NLF6hTe4PAg-unsplash.jpg","","","","","","","","","","","","","","","","","","","","","","","","","","","","","","","","","","","","","","","","","","","","","","","","","","","","","","","","","","","","","","","","",""
"","rating","","html-slider-response","15","63718","0.0-1.0-12.0","33","59186","male","1918","","","","","68","10","5","Stimuli/Experimental_stims/outdoor_scenes/jeff-king-bJHWJeiHfHc-unsplash.jpg","","","","","","","","","","","","","","","","","","","","","","","","","","","","","","","","","","","","","","","","","","","","","","","","","","","","","","","","","","","","","","","","",""
"","rating","","html-slider-response","16","66433","0.0-1.0-13.0","33","59186","male","2693","","","","","16","11","25","Stimuli/Experimental_stims/body_parts/engin-akyurt-Q2rfH3GW39c-unsplash.jpg","","","","","","","","","","","","","","","","","","","","","","","","","","","","","","","","","","","","","","","","","","","","","","","","","","","","","","","","","","","","","","","","",""
"","rating","","html-slider-response","17","68355","0.0-1.0-14.0","33","59186","male","1897","","","","","29","12","21","Stimuli/Experimental_stims/faces/leilani-angel-K84vnnzxmTQ-unsplash.jpg","","","","","","","","","","","","","","","","","","","","","","","","","","","","","","","","","","","","","","","","","","","","","","","","","","","","","","","","","","","","","","","","",""
"","rating","","html-slider-response","18","70735","0.0-1.0-15.0","33","59186","male","2359","","","","","35","13","40","Stimuli/Experimental_stims/objects/fabian-blank-pElSkGRA2NU-unsplash.jpg","","","","","","","","","","","","","","","","","","","","","","","","","","","","","","","","","","","","","","","","","","","","","","","","","","","","","","","","","","","","","","","","",""
"","rating","","html-slider-response","19","72791","0.0-1.0-16.0","33","59186","male","2035","","","","","28","14","46","Stimuli/Experimental_stims/objects/mockup-graphics-PNsj6RiHAF4-unsplash.jpg","","","","","","","","","","","","","","","","","","","","","","","","","","","","","","","","","","","","","","","","","","","","","","","","","","","","","","","","","","","","","","","","",""
"","rating","","html-slider-response","20","75073","0.0-1.0-17.0","33","59186","male","2261","","","","","36","15","34","Stimuli/Experimental_stims/body_parts/wagner-santos-mBWMvIuVnso-unsplash.jpg","","","","","","","","","","","","","","","","","","","","","","","","","","","","","","","","","","","","","","","","","","","","","","","","","","","","","","","","","","","","","","","","",""
"","rating","","html-slider-response","21","76969","0.0-1.0-18.0","33","59186","male","1875","","","","","35","16","32","Stimuli/Experimental_stims/body_parts/towfiqu-barbhuiya-3AsiVDsZnHg-unsplash.jpg","","","","","","","","","","","","","","","","","","","","","","","","","","","","","","","","","","","","","","","","","","","","","","","","","","","","","","","","","","","","","","","","",""
"","rating","","html-slider-response","22","79063","0.0-1.0-19.0","33","59186","male","2074","","","","","32","17","18","Stimuli/Experimental_stims/faces/jessica-radanavong-mrYkTuAesKE-unsplash.jpg","","","","","","","","","","","","","","","","","","","","","","","","","","","","","","","","","","","","","","","","","","","","","","","","","","","","","","","","","","","","","","","","",""
"","rating","","html-slider-response","23","81585","0.0-1.0-20.0","33","59186","male","2503","","","","","50","18","22","Stimuli/Experimental_stims/faces/ravi-patel-VMGAbeeJTKo-unsplash.jpg","","","","","","","","","","","","","","","","","","","","","","","","","","","","","","","","","","","","","","","","","","","","","","","","","","","","","","","","","","","","","","","","",""
"","rating","","html-slider-response","24","83523","0.0-1.0-21.0","33","59186","male","1918","","","","","36","19","33","Stimuli/Experimental_stims/body_parts/tucker-good-36skLT5jZcc-unsplash.jpg","","","","","","","","","","","","","","","","","","","","","","","","","","","","","","","","","","","","","","","","","","","","","","","","","","","","","","","","","","","","","","","","",""
"","rating","","html-slider-response","25","85702","0.0-1.0-22.0","33","59186","male","2158","","","","","26","20","47","Stimuli/Experimental_stims/objects/ronaldo-arthur-vidal-Cdz_lvnl37k-unsplash.jpg","","","","","","","","","","","","","","","","","","","","","","","","","","","","","","","","","","","","","","","","","","","","","","","","","","","","","","","","","","","","","","","","",""
"","rating","","html-slider-response","26","87327","0.0-1.0-23.0","33","59186","male","1604","","","","","37","21","20","Stimuli/Experimental_stims/faces/justin-chen-J7Cf1Gch49E-unsplash.jpg","","","","","","","","","","","","","","","","","","","","","","","","","","","","","","","","","","","","","","","","","","","","","","","","","","","","","","","","","","","","","","","","",""
"","rating","","html-slider-response","27","90280","0.0-1.0-24.0","33","59186","male","2930","","","","","58","22","19","Stimuli/Experimental_stims/faces/joel-mott-LaK153ghdig-unsplash.jpg","","","","","","","","","","","","","","","","","","","","","","","","","","","","","","","","","","","","","","","","","","","","","","","","","","","","","","","","","","","","","","","","",""
"","rating","","html-slider-response","28","92675","0.0-1.0-25.0","33","59186","male","2373","","","","","34","23","42","Stimuli/Experimental_stims/objects/jess-bailey-nOeVi8DsN8U-unsplash.jpg","","","","","","","","","","","","","","","","","","","","","","","","","","","","","","","","","","","","","","","","","","","","","","","","","","","","","","","","","","","","","","","","",""
"","rating","","html-slider-response","29","95561","0.0-1.0-26.0","33","59186","male","2865","","","","","34","24","26","Stimuli/Experimental_stims/body_parts/engin-akyurt-x_3gyC42btc-unsplash.jpg","","","","","","","","","","","","","","","","","","","","","","","","","","","","","","","","","","","","","","","","","","","","","","","","","","","","","","","","","","","","","","","","",""
"","rating","","html-slider-response","30","97532","0.0-1.0-27.0","33","59186","male","1950","","","","","27","25","36","Stimuli/Experimental_stims/objects/alexander-andrews-JYGnB9gTCls-unsplash.jpg","","","","","","","","","","","","","","","","","","","","","","","","","","","","","","","","","","","","","","","","","","","","","","","","","","","","","","","","","","","","","","","","",""
"","rating","","html-slider-response","31","99282","0.0-1.0-28.0","33","59186","male","1729","","","","","29","26","41","Stimuli/Experimental_stims/objects/insung-yoon-w2JtIQQXoRU-unsplash.jpg","","","","","","","","","","","","","","","","","","","","","","","","","","","","","","","","","","","","","","","","","","","","","","","","","","","","","","","","","","","","","","","","",""
"","rating","","html-slider-response","32","101213","0.0-1.0-29.0","33","59186","male","1909","","","","","50","27","0","Stimuli/Experimental_stims/outdoor_scenes/aleksandra-boguslawska-MS7KD9Ti7FQ-unsplash.jpg","","","","","","","","","","","","","","","","","","","","","","","","","","","","","","","","","","","","","","","","","","","","","","","","","","","","","","","","","","","","","","","","",""
"","rating","","html-slider-response","33","104380","0.0-1.0-30.0","33","59186","male","3145","","","","","52","28","29","Stimuli/Experimental_stims/body_parts/manuel-schinner-ZwjFuJ7ebpk-unsplash.jpg","","","","","","","","","","","","","","","","","","","","","","","","","","","","","","","","","","","","","","","","","","","","","","","","","","","","","","","","","","","","","","","","",""
"","rating","","html-slider-response","34","106178","0.0-1.0-31.0","33","59186","male","1777","","","","","25","29","39","Stimuli/Experimental_stims/objects/charlesdeluvio-1-nx1QR5dTE-unsplash.jpg","","","","","","","","","","","","","","","","","","","","","","","","","","","","","","","","","","","","","","","","","","","","","","","","","","","","","","","","","","","","","","","","",""
"","rating","","html-slider-response","35","108186","0.0-1.0-32.0","33","59186","male","1985","","","","","32","30","27","Stimuli/Experimental_stims/body_parts/heike-mintel-i_Gns0ELnLw-unsplash.jpg","","","","","","","","","","","","","","","","","","","","","","","","","","","","","","","","","","","","","","","","","","","","","","","","","","","","","","","","","","","","","","","","",""
"","rating","","html-slider-response","36","111307","0.0-1.0-33.0","33","59186","male","3099","","","","","52","31","16","Stimuli/Experimental_stims/faces/freddy-kearney-o-ioeoATbIM-unsplash.jpg","","","","","","","","","","","","","","","","","","","","","","","","","","","","","","","","","","","","","","","","","","","","","","","","","","","","","","","","","","","","","","","","",""
"","rating","","html-slider-response","37","113276","0.0-1.0-34.0","33","59186","male","1948","","","","","54","32","8","Stimuli/Experimental_stims/outdoor_scenes/samsommer-vddccTqwal8-unsplash.jpg","","","","","","","","","","","","","","","","","","","","","","","","","","","","","","","","","","","","","","","","","","","","","","","","","","","","","","","","","","","","","","","","",""
"","rating","","html-slider-response","38","115360","0.0-1.0-35.0","33","59186","male","2064","","","","","22","33","38","Stimuli/Experimental_stims/objects/art-lasovsky-8XddFc6NkBY-unsplash.jpg","","","","","","","","","","","","","","","","","","","","","","","","","","","","","","","","","","","","","","","","","","","","","","","","","","","","","","","","","","","","","","","","",""
"","rating","","html-slider-response","39","117159","0.0-1.0-36.0","33","59186","male","1778","","","","","26","34","30","Stimuli/Experimental_stims/body_parts/mika-korhonen-Xodzxosar18-unsplash.jpg","","","","","","","","","","","","","","","","","","","","","","","","","","","","","","","","","","","","","","","","","","","","","","","","","","","","","","","","","","","","","","","","",""
"","rating","","html-slider-response","40","118793","0.0-1.0-37.0","33","59186","male","1614","","","","","27","35","23","Stimuli/Experimental_stims/faces/rikonavt-HQjfrvdTfak-unsplash.jpg","","","","","","","","","","","","","","","","","","","","","","","","","","","","","","","","","","","","","","","","","","","","","","","","","","","","","","","","","","","","","","","","",""
"","rating","","html-slider-response","41","121097","0.0-1.0-38.0","33","59186","male","2283","","","","","60","36","10","Stimuli/Experimental_stims/outdoor_scenes/shannon-kunkle-dM8INmkyDas-unsplash.jpg","","","","","","","","","","","","","","","","","","","","","","","","","","","","","","","","","","","","","","","","","","","","","","","","","","","","","","","","","","","","","","","","",""
"","rating","","html-slider-response","42","123232","0.0-1.0-39.0","33","59186","male","2112","","","","","50","37","12","Stimuli/Experimental_stims/faces/aiony-haust-jmATI5Q_YgY-unsplash.jpg","","","","","","","","","","","","","","","","","","","","","","","","","","","","","","","","","","","","","","","","","","","","","","","","","","","","","","","","","","","","","","","","",""
"","rating","","html-slider-response","43","125416","0.0-1.0-40.0","33","59186","male","2161","","","","","24","38","31","Stimuli/Experimental_stims/body_parts/sincerely-media-VN6DbKajo5s-unsplash.jpg","","","","","","","","","","","","","","","","","","","","","","","","","","","","","","","","","","","","","","","","","","","","","","","","","","","","","","","","","","","","","","","","",""
"","rating","","html-slider-response","44","127611","0.0-1.0-41.0","33","59186","male","2174","","","","","50","39","7","Stimuli/Experimental_stims/outdoor_scenes/petr-vysohlid-9fqwGqGLUxc-unsplash.jpg","","","","","","","","","","","","","","","","","","","","","","","","","","","","","","","","","","","","","","","","","","","","","","","","","","","","","","","","","","","","","","","","",""
"","rating","","html-slider-response","45","130297","0.0-1.0-42.0","33","59186","male","2666","","","","","28","40","15","Stimuli/Experimental_stims/faces/erik-lucatero-d2MSDujJl2g-unsplash.jpg","","","","","","","","","","","","","","","","","","","","","","","","","","","","","","","","","","","","","","","","","","","","","","","","","","","","","","","","","","","","","","","","",""
"","rating","","html-slider-response","46","132451","0.0-1.0-43.0","33","59186","male","2134","","","","","33","41","28","Stimuli/Experimental_stims/body_parts/ira-vishnevskaya-8DQAvdCby1I-unsplash.jpg","","","","","","","","","","","","","","","","","","","","","","","","","","","","","","","","","","","","","","","","","","","","","","","","","","","","","","","","","","","","","","","","",""
"","rating","","html-slider-response","47","134515","0.0-1.0-44.0","33","59186","male","2044","","","","","36","42","9","Stimuli/Experimental_stims/outdoor_scenes/sergey-pesterev-y-b_FOmJXdg-unsplash.jpg","","","","","","","","","","","","","","","","","","","","","","","","","","","","","","","","","","","","","","","","","","","","","","","","","","","","","","","","","","","","","","","","",""
"","rating","","html-slider-response","48","136570","0.0-1.0-45.0","33","59186","male","2033","","","","","75","43","2","Stimuli/Experimental_stims/outdoor_scenes/bruno-van-der-kraan-qez8mNJ3ilU-unsplash.jpg","","","","","","","","","","","","","","","","","","","","","","","","","","","","","","","","","","","","","","","","","","","","","","","","","","","","","","","","","","","","","","","","",""
"","rating","","html-slider-response","49","138702","0.0-1.0-46.0","33","59186","male","2108","","","","","43","44","17","Stimuli/Experimental_stims/faces/good-faces-xmSWVeGEnJw-unsplash.jpg","","","","","","","","","","","","","","","","","","","","","","","","","","","","","","","","","","","","","","","","","","","","","","","","","","","","","","","","","","","","","","","","",""
"","rating","","html-slider-response","50","140351","0.0-1.0-47.0","33","59186","male","1628","","","","","27","45","44","Stimuli/Experimental_stims/objects/kuiye-chen-NuOGFo4PudE-unsplash.jpg","","","","","","","","","","","","","","","","","","","","","","","","","","","","","","","","","","","","","","","","","","","","","","","","","","","","","","","","","","","","","","","","",""
"","rating","","html-slider-response","51","143613","0.0-1.0-48.0","33","59186","male","3242","","","","","31","46","13","Stimuli/Experimental_stims/faces/daniel-rigdon-dXmXKPP2L4E-unsplash.jpg","","","","","","","","","","","","","","","","","","","","","","","","","","","","","","","","","","","","","","","","","","","","","","","","","","","","","","","","","","","","","","","","",""
"","rating","","html-slider-response","52","145917","0.0-1.0-49.0","33","59186","male","2283","","","","","33","47","14","Stimuli/Experimental_stims/faces/david-siglin-UuW4psOb388-unsplash.jpg","","","","","","","","","","","","","","","","","","","","","","","","","","","","","","","","","","","","","","","","","","","","","","","","","","","","","","","","","","","","","","","","",""
"","localizer_instructions","","instructions","53","177272","0.0-2.0-0.0-0.0","33","59186","male","31130","","[{""page_index"":0,""viewing_time"":20468},{""page_index"":1,""viewing_time"":8411},{""page_index"":2,""viewing_time"":2249}]","","","","","","","","","","","","","","","","","","","","","","","","","","","","","","","","","","","","","","","","","","","","","","","","","","","","","","","","","","","","","","","","","","","","","","",""
"","localizer_comprehension_check","","survey-multi-choice","54","187888","0.0-2.0-0.0-1.0","33","59186","male","10588","{""Q0"":""True"",""Q1"":""K"",""Q2"":""D""}","","0","","","","","","","","","","","","","","","","","","","","","","","","","","","","","","","","","","","","","","","","","","","","","","","","","","","","","","","","","","","","","","","","","","","","","",""
"","","","html-keyboard-response","55","190811","0.0-2.0-1.0","33","59186","male","2899","","","","68","","","","","","","","","","","","","","","","","","","","","","","","","","","","","","","","","","","","","","","","","","","","","","","","","","","","","","","","","","","","","","","","","","","","",""
"","localizer","","html-keyboard-response","56","191243","0.0-2.0-2.0-0.0","33","59186","male","NaN","","","","null","NaN","0","","Stimuli/Practice_stims/Localizer/annie-spratt-g9KFpAfQ5bc-unsplash.jpg","190811","0","NaN","","0","1","0","400","0","432","0","","","","","","","","","","","","","","","","","","","","","","","","","","","","","","","","","","","","","","","","","","","","","","","","","","","","","",""
"","iti_localizer","","html-keyboard-response","57","191570","0.0-2.0-2.0-1.0","33","59186","male","null","","","","null","","0","","","191243","0","","","","","","300","400","327","432","300","","","","","","","","","","","","","","","","","","","","","","","","","","","","","","","","","","","","","","","","","","","","","","","","","","","","",""
"","localizer","","html-keyboard-response","58","192003","0.0-2.0-2.1-0.1","33","59186","male","316","","","","68","0","0","","Stimuli/Practice_stims/Localizer/annie-spratt-g9KFpAfQ5bc-unsplash.jpg","191570","0","NaN","","0","0","1","400","700","433","759","","","","","","","","","","","","","","","","","","","","","","","","","","","","","","","","","","","","","","","","","","","","","","","","","","","","","",""
"","iti_localizer","","html-keyboard-response","59","192331","0.0-2.0-2.1-1.1","33","59186","male","null","","","","null","","0","","","192003","0","","","","","","300","1100","328","1192","300","","","","","","","","","","","","","","","","","","","","","","","","","","","","","","","","","","","","","","","","","","","","","","","","","","","","",""
"","localizer","","html-keyboard-response","60","192762","0.0-2.0-3.0-0.0","33","59186","male","NaN","","","","null","NaN","1","","Stimuli/Practice_stims/Localizer/becca-tapert-sY5RjMB1KkE-unsplash.jpg","192331","0","NaN","","0","1","0","400","1400","431","1520","","","","","","","","","","","","","","","","","","","","","","","","","","","","","","","","","","","","","","","","","","","","","","","","","","","","","",""
"","iti_localizer","","html-keyboard-response","61","193089","0.0-2.0-3.0-1.0","33","59186","male","null","","","","null","","1","","","192762","0","","","","","","300","1800","327","1951","300","","","","","","","","","","","","","","","","","","","","","","","","","","","","","","","","","","","","","","","","","","","","","","","","","","","","",""
"","localizer","","html-keyboard-response","62","193517","0.0-2.0-3.1-0.1","33","59186","male","NaN","","","","null","NaN","1","","Stimuli/Practice_stims/Localizer/becca-tapert-sY5RjMB1KkE-unsplash.jpg","193089","0","NaN","","0","1","0","400","2100","428","2278","","","","","","","","","","","","","","","","","","","","","","","","","","","","","","","","","","","","","","","","","","","","","","","","","","","","","",""
"","iti_localizer","","html-keyboard-response","63","193843","0.0-2.0-3.1-1.1","33","59186","male","null","","","","null","","1","","","193517","0","","","","","","300","2500","326","2706","300","","","","","","","","","","","","","","","","","","","","","","","","","","","","","","","","","","","","","","","","","","","","","","","","","","","","",""
"","localizer","","html-keyboard-response","64","194274","0.0-2.0-3.2-0.2","33","59186","male","NaN","","","","null","NaN","1","","Stimuli/Practice_stims/Localizer/becca-tapert-sY5RjMB1KkE-unsplash.jpg","193843","0","NaN","","0","1","0","400","2800","431","3032","","","","","","","","","","","","","","","","","","","","","","","","","","","","","","","","","","","","","","","","","","","","","","","","","","","","","",""
"","iti_localizer","","html-keyboard-response","65","194604","0.0-2.0-3.2-1.2","33","59186","male","null","","","","null","","1","","","194274","0","","","","","","300","3200","330","3463","300","","","","","","","","","","","","","","","","","","","","","","","","","","","","","","","","","","","","","","","","","","","","","","","","","","","","",""
"","localizer","","html-keyboard-response","66","195034","0.0-2.0-3.3-0.3","33","59186","male","NaN","","","","null","NaN","1","","Stimuli/Practice_stims/Localizer/becca-tapert-sY5RjMB1KkE-unsplash.jpg","194604","0","NaN","","0","1","0","400","3500","430","3793","","","","","","","","","","","","","","","","","","","","","","","","","","","","","","","","","","","","","","","","","","","","","","","","","","","","","",""
"","iti_localizer","","html-keyboard-response","67","195361","0.0-2.0-3.3-1.3","33","59186","male","null","","","","null","","1","","","195034","0","","","","","","300","3900","327","4223","300","","","","","","","","","","","","","","","","","","","","","","","","","","","","","","","","","","","","","","","","","","","","","","","","","","","","",""
"","localizer","","html-keyboard-response","68","195797","0.0-2.0-3.4-0.4","33","59186","male","NaN","","","","null","NaN","1","","Stimuli/Practice_stims/Localizer/becca-tapert-sY5RjMB1KkE-unsplash.jpg","195361","0","NaN","","0","1","0","400","4200","436","4550","","","","","","","","","","","","","","","","","","","","","","","","","","","","","","","","","","","","","","","","","","","","","","","","","","","","","",""
"","iti_localizer","","html-keyboard-response","69","196133","0.0-2.0-3.4-1.4","33","59186","male","null","","","","null","","1","","","195797","0","","","","","","300","4600","336","4986","300","","","","","","","","","","","","","","","","","","","","","","","","","","","","","","","","","","","","","","","","","","","","","","","","","","","","",""
"","localizer","","html-keyboard-response","70","196565","0.0-2.0-3.5-0.5","33","59186","male","NaN","","","","null","NaN","1","","Stimuli/Practice_stims/Localizer/becca-tapert-sY5RjMB1KkE-unsplash.jpg","196133","0","NaN","","0","1","0","400","4900","432","5322","","","","","","","","","","","","","","","","","","","","","","","","","","","","","","","","","","","","","","","","","","","","","","","","","","","","","",""
"","iti_localizer","","html-keyboard-response","71","196896","0.0-2.0-3.5-1.5","33","59186","male","null","","","","null","","1","","","196565","0","","","","","","300","5300","331","5754","300","","","","","","","","","","","","","","","","","","","","","","","","","","","","","","","","","","","","","","","","","","","","","","","","","","","","",""
"","localizer","","html-keyboard-response","72","197331","0.0-2.0-3.6-0.6","33","59186","male","NaN","","","","null","NaN","1","","Stimuli/Practice_stims/Localizer/becca-tapert-sY5RjMB1KkE-unsplash.jpg","196896","0","NaN","","0","1","0","400","5600","435","6085","","","","","","","","","","","","","","","","","","","","","","","","","","","","","","","","","","","","","","","","","","","","","","","","","","","","","",""
"","iti_localizer","","html-keyboard-response","73","197658","0.0-2.0-3.6-1.6","33","59186","male","null","","","","null","","1","","","197331","0","","","","","","300","6000","327","6520","300","","","","","","","","","","","","","","","","","","","","","","","","","","","","","","","","","","","","","","","","","","","","","","","","","","","","",""
"","localizer","","html-keyboard-response","74","198091","0.0-2.0-3.7-0.7","33","59186","male","NaN","","","","null","NaN","1","","Stimuli/Practice_stims/Localizer/becca-tapert-sY5RjMB1KkE-unsplash.jpg","197658","0","NaN","","0","1","0","400","6300","433","6847","","","","","","","","","","","","","","","","","","","","","","","","","","","","","","","","","","","","","","","","","","","","","","","","","","","","","",""
"","iti_localizer","","html-keyboard-response","75","198418","0.0-2.0-3.7-1.7","33","59186","male","null","","","","null","","1","","","198091","0","","","","","","300","6700","327","7280","300","","","","","","","","","","","","","","","","","","","","","","","","","","","","","","","","","","","","","","","","","","","","","","","","","","","","",""
"","localizer","","html-keyboard-response","76","198851","0.0-2.0-3.8-0.8","33","59186","male","NaN","","","","null","NaN","1","","Stimuli/Practice_stims/Localizer/becca-tapert-sY5RjMB1KkE-unsplash.jpg","198418","0","NaN","","0","1","0","400","7000","433","7607","","","","","","","","","","","","","","","","","","","","","","","","","","","","","","","","","","","","","","","","","","","","","","","","","","","","","",""
"","iti_localizer","","html-keyboard-response","77","199177","0.0-2.0-3.8-1.8","33","59186","male","null","","","","null","","1","","","198851","0","","","","","","300","7400","326","8040","300","","","","","","","","","","","","","","","","","","","","","","","","","","","","","","","","","","","","","","","","","","","","","","","","","","","","",""
"","localizer","","html-keyboard-response","78","199610","0.0-2.0-3.9-0.9","33","59186","male","391","","","","68","0","1","","Stimuli/Practice_stims/Localizer/becca-tapert-sY5RjMB1KkE-unsplash.jpg","199177","0","NaN","","0","0","1","400","7700","433","8366","","","","","","","","","","","","","","","","","","","","","","","","","","","","","","","","","","","","","","","","","","","","","","","","","","","","","",""
"","iti_localizer","","html-keyboard-response","79","199938","0.0-2.0-3.9-1.9","33","59186","male","null","","","","null","","1","","","199610","0","","","","","","300","8100","328","8799","300","","","","","","","","","","","","","","","","","","","","","","","","","","","","","","","","","","","","","","","","","","","","","","","","","","","","",""
"","localizer","","html-keyboard-response","80","200371","0.0-2.0-4.0-0.0","33","59186","male","NaN","","","","null","NaN","2","","Stimuli/Practice_stims/Localizer/charl-durand-bsfXvI25iNg-unsplash.jpg","199938","0","NaN","","1","1","0","400","8400","433","9127","","","","","","","","","","","","","","","","","","","","","","","","","","","","","","","","","","","","","","","","","","","","","","","","","","","","","",""
"","iti_localizer","","html-keyboard-response","81","200697","0.0-2.0-4.0-1.0","33","59186","male","null","","","","null","","2","","","200371","0","","","","","","300","8800","326","9560","300","","","","","","","","","","","","","","","","","","","","","","","","","","","","","","","","","","","","","","","","","","","","","","","","","","","","",""
"","localizer","","html-keyboard-response","82","201131","0.0-2.0-4.1-0.1","33","59186","male","NaN","","","","null","NaN","2","","Stimuli/Practice_stims/Localizer/charl-durand-bsfXvI25iNg-unsplash.jpg","200697","0","NaN","","1","1","0","400","9100","434","9886","","","","","","","","","","","","","","","","","","","","","","","","","","","","","","","","","","","","","","","","","","","","","","","","","","","","","",""
"","iti_localizer","","html-keyboard-response","83","201457","0.0-2.0-4.1-1.1","33","59186","male","null","","","","null","","2","","","201131","0","","","","","","300","9500","326","10320","300","","","","","","","","","","","","","","","","","","","","","","","","","","","","","","","","","","","","","","","","","","","","","","","","","","","","",""
"","localizer","","html-keyboard-response","84","201892","0.0-2.0-4.2-0.2","33","59186","male","NaN","","","","null","NaN","2","","Stimuli/Practice_stims/Localizer/charl-durand-bsfXvI25iNg-unsplash.jpg","201457","0","NaN","","1","1","0","400","9800","435","10646","","","","","","","","","","","","","","","","","","","","","","","","","","","","","","","","","","","","","","","","","","","","","","","","","","","","","",""
"","iti_localizer","","html-keyboard-response","85","202217","0.0-2.0-4.2-1.2","33","59186","male","null","","","","null","","2","","","201892","0","","","","","","300","10200","325","11081","300","","","","","","","","","","","","","","","","","","","","","","","","","","","","","","","","","","","","","","","","","","","","","","","","","","","","",""
"","localizer","","html-keyboard-response","86","202650","0.0-2.0-4.3-0.3","33","59186","male","NaN","","","","null","NaN","2","","Stimuli/Practice_stims/Localizer/charl-durand-bsfXvI25iNg-unsplash.jpg","202217","0","NaN","","1","1","0","400","10500","433","11406","","","","","","","","","","","","","","","","","","","","","","","","","","","","","","","","","","","","","","","","","","","","","","","","","","","","","",""
"","iti_localizer","","html-keyboard-response","87","202978","0.0-2.0-4.3-1.3","33","59186","male","null","","","","null","","2","","","202650","0","","","","","","300","10900","328","11839","300","","","","","","","","","","","","","","","","","","","","","","","","","","","","","","","","","","","","","","","","","","","","","","","","","","","","",""
"","localizer","","html-keyboard-response","88","203409","0.0-2.0-4.4-0.4","33","59186","male","373","","","","75","1","2","","Stimuli/Practice_stims/Localizer/charl-durand-bsfXvI25iNg-unsplash.jpg","202978","0","NaN","","1","0","1","400","11200","431","12167","","","","","","","","","","","","","","","","","","","","","","","","","","","","","","","","","","","","","","","","","","","","","","","","","","","","","",""
"","iti_localizer","","html-keyboard-response","89","203738","0.0-2.0-4.4-1.4","33","59186","male","null","","","","null","","2","","","203409","0","","","","","","300","11600","329","12598","300","","","","","","","","","","","","","","","","","","","","","","","","","","","","","","","","","","","","","","","","","","","","","","","","","","","","",""
"","localizer","","html-keyboard-response","90","204173","0.0-2.0-5.0-0.0","33","59186","male","NaN","","","","null","NaN","3","","Stimuli/Practice_stims/Localizer/nizar-albusaidy-B2r2SWAf5CE-unsplash.jpg","203738","0","NaN","","0","1","0","400","11900","435","12927","","","","","","","","","","","","","","","","","","","","","","","","","","","","","","","","","","","","","","","","","","","","","","","","","","","","","",""
"","iti_localizer","","html-keyboard-response","91","204498","0.0-2.0-5.0-1.0","33","59186","male","null","","","","null","","3","","","204173","0","","","","","","300","12300","325","13362","300","","","","","","","","","","","","","","","","","","","","","","","","","","","","","","","","","","","","","","","","","","","","","","","","","","","","",""
"","localizer","","html-keyboard-response","92","204929","0.0-2.0-5.1-0.1","33","59186","male","NaN","","","","null","NaN","3","","Stimuli/Practice_stims/Localizer/nizar-albusaidy-B2r2SWAf5CE-unsplash.jpg","204498","0","NaN","","0","1","0","400","12600","431","13687","","","","","","","","","","","","","","","","","","","","","","","","","","","","","","","","","","","","","","","","","","","","","","","","","","","","","",""
"","iti_localizer","","html-keyboard-response","93","205257","0.0-2.0-5.1-1.1","33","59186","male","null","","","","null","","3","","","204929","0","","","","","","300","13000","328","14118","300","","","","","","","","","","","","","","","","","","","","","","","","","","","","","","","","","","","","","","","","","","","","","","","","","","","","",""
"","localizer","","html-keyboard-response","94","205689","0.0-2.0-5.2-0.2","33","59186","male","NaN","","","","null","NaN","3","","Stimuli/Practice_stims/Localizer/nizar-albusaidy-B2r2SWAf5CE-unsplash.jpg","205257","0","NaN","","0","1","0","400","13300","432","14446","","","","","","","","","","","","","","","","","","","","","","","","","","","","","","","","","","","","","","","","","","","","","","","","","","","","","",""
"","iti_localizer","","html-keyboard-response","95","206019","0.0-2.0-5.2-1.2","33","59186","male","null","","","","null","","3","","","205689","0","","","","","","300","13700","330","14878","300","","","","","","","","","","","","","","","","","","","","","","","","","","","","","","","","","","","","","","","","","","","","","","","","","","","","",""
"","localizer","","html-keyboard-response","96","206451","0.0-2.0-5.3-0.3","33","59186","male","363","","","","68","0","3","","Stimuli/Practice_stims/Localizer/nizar-albusaidy-B2r2SWAf5CE-unsplash.jpg","206019","0","NaN","","0","0","1","400","14000","432","15208","","","","","","","","","","","","","","","","","","","","","","","","","","","","","","","","","","","","","","","","","","","","","","","","","","","","","",""
"","iti_localizer","","html-keyboard-response","97","206778","0.0-2.0-5.3-1.3","33","59186","male","null","","","","null","","3","","","206451","0","","","","","","300","14400","327","15640","300","","","","","","","","","","","","","","","","","","","","","","","","","","","","","","","","","","","","","","","","","","","","","","","","","","","","",""
"","localizer","","html-keyboard-response","98","207211","0.0-2.0-6.0-0.0","33","59186","male","NaN","","","","null","NaN","4","","Stimuli/Practice_stims/Localizer/randy-fath-epf1tdtIIkM-unsplash.jpg","206778","0","NaN","","1","1","0","400","14700","433","15967","","","","","","","","","","","","","","","","","","","","","","","","","","","","","","","","","","","","","","","","","","","","","","","","","","","","","",""
"","iti_localizer","","html-keyboard-response","99","207536","0.0-2.0-6.0-1.0","33","59186","male","null","","","","null","","4","","","207211","0","","","","","","300","15100","325","16400","300","","","","","","","","","","","","","","","","","","","","","","","","","","","","","","","","","","","","","","","","","","","","","","","","","","","","",""
"","localizer","","html-keyboard-response","100","207970","0.0-2.0-6.1-0.1","33","59186","male","406","","","","75","1","4","","Stimuli/Practice_stims/Localizer/randy-fath-epf1tdtIIkM-unsplash.jpg","207536","0","NaN","","1","0","1","400","15400","434","16725","","","","","","","","","","","","","","","","","","","","","","","","","","","","","","","","","","","","","","","","","","","","","","","","","","","","","",""
"","iti_localizer","","html-keyboard-response","101","208297","0.0-2.0-6.1-1.1","33","59186","male","null","","","","null","","4","","","207970","0","","","","","","300","15800","327","17159","300","","","","","","","","","","","","","","","","","","","","","","","","","","","","","","","","","","","","","","","","","","","","","","","","","","","","",""
"","localizer","","html-keyboard-response","102","208731","0.0-2.0-7.0-0.0","33","59186","male","NaN","","","","null","NaN","5","","Stimuli/Practice_stims/Localizer/yassine-khalfalli-adsQ9d_Cx0c-unsplash.jpg","208297","0","NaN","","0","1","0","400","16100","434","17486","","","","","","","","","","","","","","","","","","","","","","","","","","","","","","","","","","","","","","","","","","","","","","","","","","","","","",""
"","iti_localizer","","html-keyboard-response","103","209057","0.0-2.0-7.0-1.0","33","59186","male","null","","","","null","","5","","","208731","0","","","","","","300","16500","326","17920","300","","","","","","","","","","","","","","","","","","","","","","","","","","","","","","","","","","","","","","","","","","","","","","","","","","","","",""
"","localizer","","html-keyboard-response","104","209514","0.0-2.0-7.1-0.1","33","59186","male","NaN","","","","null","NaN","5","","Stimuli/Practice_stims/Localizer/yassine-khalfalli-adsQ9d_Cx0c-unsplash.jpg","209057","0","NaN","","0","1","0","400","16800","457","18246","","","","","","","","","","","","","","","","","","","","","","","","","","","","","","","","","","","","","","","","","","","","","","","","","","","","","",""
"","iti_localizer","","html-keyboard-response","105","209867","0.0-2.0-7.1-1.1","33","59186","male","null","","","","null","","5","","","209514","0","","","","","","300","17200","353","18703","300","","","","","","","","","","","","","","","","","","","","","","","","","","","","","","","","","","","","","","","","","","","","","","","","","","","","",""
"","localizer","","html-keyboard-response","106","210300","0.0-2.0-7.2-0.2","33","59186","male","NaN","","","","null","NaN","5","","Stimuli/Practice_stims/Localizer/yassine-khalfalli-adsQ9d_Cx0c-unsplash.jpg","209867","0","NaN","","0","1","0","400","17500","433","19056","","","","","","","","","","","","","","","","","","","","","","","","","","","","","","","","","","","","","","","","","","","","","","","","","","","","","",""
"","iti_localizer","","html-keyboard-response","107","210626","0.0-2.0-7.2-1.2","33","59186","male","null","","","","null","","5","","","210300","0","","","","","","300","17900","326","19489","300","","","","","","","","","","","","","","","","","","","","","","","","","","","","","","","","","","","","","","","","","","","","","","","","","","","","",""
"","localizer","","html-keyboard-response","108","211059","0.0-2.0-7.3-0.3","33","59186","male","366","","","","68","0","5","","Stimuli/Practice_stims/Localizer/yassine-khalfalli-adsQ9d_Cx0c-unsplash.jpg","210626","0","NaN","","0","0","1","400","18200","433","19815","","","","","","","","","","","","","","","","","","","","","","","","","","","","","","","","","","","","","","","","","","","","","","","","","","","","","",""
"","iti_localizer","","html-keyboard-response","109","211385","0.0-2.0-7.3-1.3","33","59186","male","null","","","","null","","5","","","211059","0","","","","","","300","18600","326","20248","300","","","","","","","","","","","","","","","","","","","","","","","","","","","","","","","","","","","","","","","","","","","","","","","","","","","","",""
"","practice_over","","html-keyboard-response","110","213514","0.0-2.0-7.3-2.3-0.3","33","59186","male","2108","","","","68","","","","","","","","","","","","","","","","","","","","","","","","","","","","","","","","","","","","","","","","","","","","","","","","","","","","","","","","","","","","","","","","","","","","",""
"","start_run","","html-keyboard-response","111","215513","0.0-2.0-7.3-2.3-1.3","33","59186","male","1979","","","","84","","","","","","","","","","","","","","","","","","","","","","","","","","","","","","","","","","","","","","","","","","","","","","","","","","","","","","","","","","","","","","","","","","","","",""
"","localizer","","html-keyboard-response","112","215946","0.0-2.0-8.0-0.0","33","59186","male","NaN","","","","null","NaN","6","","Stimuli/Experimental_stims/localizer/objects/jonny-caspari-wsvCC6UyKjs-unsplash.jpg","215513","1","objects","","0","1","0","400","0","433","0","","","","","","","","","","","","","","","","","","","","","","","","","","","","","","","","","","","","","","","","","","","","","","","","","","","","","",""
"","iti_localizer","","html-keyboard-response","113","216275","0.0-2.0-8.0-1.0","33","59186","male","null","","","","null","","6","","","215946","1","","","","","","300","400","329","433","300","","","","","","","","","","","","","","","","","","","","","","","","","","","","","","","","","","","","","","","","","","","","","","","","","","","","",""
"","localizer","","html-keyboard-response","114","216708","0.0-2.0-9.0-0.0","33","59186","male","251","","","","68","0","7","","Stimuli/Experimental_stims/localizer/objects/charlesdeluvio-RDjZh9dqlP4-unsplash.jpg","216275","1","objects","","0","0","1","400","700","433","762","","","","","","","","","","","","","","","","","","","","","","","","","","","","","","","","","","","","","","","","","","","","","","","","","","","","","",""
"","iti_localizer","","html-keyboard-response","115","217035","0.0-2.0-9.0-1.0","33","59186","male","null","","","","null","","7","","","216708","1","","","","","","300","1100","327","1195","300","","","","","","","","","","","","","","","","","","","","","","","","","","","","","","","","","","","","","","","","","","","","","","","","","","","","",""
"","localizer","","html-keyboard-response","116","217472","0.0-2.0-10.0-0.0","33","59186","male","101","","","","68","0","8","","Stimuli/Experimental_stims/localizer/objects/adriano-pucciarelli-Jl3S1yM8gi8-unsplash.jpg","217035","1","objects","","0","0","1","400","1400","437","1522","","","","","","","","","","","","","","","","","","","","","","","","","","","","","","","","","","","","","","","","","","","","","","","","","","","","","",""
"","iti_localizer","","html-keyboard-response","117","217802","0.0-2.0-10.0-1.0","33","59186","male","null","","","","null","","8","","","217472","1","","","","","","300","1800","330","1959","300","","","","","","","","","","","","","","","","","","","","","","","","","","","","","","","","","","","","","","","","","","","","","","","","","","","","",""
"","localizer","","html-keyboard-response","118","218235","0.0-2.0-11.0-0.0","33","59186","male","NaN","","","","null","NaN","9","","Stimuli/Experimental_stims/localizer/objects/mockup-graphics-Pj2PY-E-LfM-unsplash.jpg","217802","1","objects","","0","1","0","400","2100","433","2289","","","","","","","","","","","","","","","","","","","","","","","","","","","","","","","","","","","","","","","","","","","","","","","","","","","","","",""
"","iti_localizer","","html-keyboard-response","119","218562","0.0-2.0-11.0-1.0","33","59186","male","null","","","","null","","9","","","218235","1","","","","","","300","2500","327","2722","300","","","","","","","","","","","","","","","","","","","","","","","","","","","","","","","","","","","","","","","","","","","","","","","","","","","","",""
"","localizer","","html-keyboard-response","120","218997","0.0-2.0-12.0-0.0","33","59186","male","406","","","","68","0","10","","Stimuli/Experimental_stims/localizer/objects/chris-briggs-x9TCnxNBofE-unsplash.jpg","218562","1","objects","","0","0","1","400","2800","435","3049","","","","","","","","","","","","","","","","","","","","","","","","","","","","","","","","","","","","","","","","","","","","","","","","","","","","","",""
"","iti_localizer","","html-keyboard-response","121","219321","0.0-2.0-12.0-1.0","33","59186","male","null","","","","null","","10","","","218997","1","","","","","","300","3200","324","3484","300","","","","","","","","","","","","","","","","","","","","","","","","","","","","","","","","","","","","","","","","","","","","","","","","","","","","",""
"","localizer","","html-keyboard-response","122","219755","0.0-2.0-13.0-0.0","33","59186","male","NaN","","","","null","NaN","11","","Stimuli/Experimental_stims/localizer/objects/ignat-dolomanov-kFBDVnmskPA-unsplash.jpg","219321","1","objects","","1","1","0","400","3500","434","3808","","","","","","","","","","","","","","","","","","","","","","","","","","","","","","","","","","","","","","","","","","","","","","","","","","","","","",""
"","iti_localizer","","html-keyboard-response","123","220083","0.0-2.0-13.0-1.0","33","59186","male","null","","","","null","","11","","","219755","1","","","","","","300","3900","328","4242","300","","","","","","","","","","","","","","","","","","","","","","","","","","","","","","","","","","","","","","","","","","","","","","","","","","","","",""
"","localizer","","html-keyboard-response","124","220513","0.0-2.0-14.0-0.0","33","59186","male","NaN","","","","null","NaN","12","","Stimuli/Experimental_stims/localizer/objects/adriano-pucciarelli-BE7yaZnZX6o-unsplash.jpg","220083","1","objects","","0","1","0","400","4200","430","4570","","","","","","","","","","","","","","","","","","","","","","","","","","","","","","","","","","","","","","","","","","","","","","","","","","","","","",""
"","iti_localizer","","html-keyboard-response","125","220842","0.0-2.0-14.0-1.0","33","59186","male","null","","","","null","","12","","","220513","1","","","","","","300","4600","329","5000","300","","","","","","","","","","","","","","","","","","","","","","","","","","","","","","","","","","","","","","","","","","","","","","","","","","","","",""
"","localizer","","html-keyboard-response","126","221274","0.0-2.0-15.0-0.0","33","59186","male","NaN","","","","null","NaN","13","","Stimuli/Experimental_stims/localizer/objects/eugene-chystiakov-3neSwyntbQ8-unsplash.jpg","220842","1","objects","","0","1","0","400","4900","432","5329","","","","","","","","","","","","","","","","","","","","","","","","","","","","","","","","","","","","","","","","","","","","","","","","","","","","","",""
"","iti_localizer","","html-keyboard-response","127","221603","0.0-2.0-15.0-1.0","33","59186","male","null","","","","null","","13","","","221274","1","","","","","","300","5300","329","5761","300","","","","","","","","","","","","","","","","","","","","","","","","","","","","","","","","","","","","","","","","","","","","","","","","","","","","",""
"","localizer","","html-keyboard-response","128","222034","0.0-2.0-16.0-0.0","33","59186","male","NaN","","","","null","NaN","14","","Stimuli/Experimental_stims/localizer/objects/girl-with-red-hat-Xxg-r574pLE-unsplash.jpg","221603","1","objects","","0","1","0","400","5600","431","6090","","","","","","","","","","","","","","","","","","","","","","","","","","","","","","","","","","","","","","","","","","","","","","","","","","","","","",""
"","iti_localizer","","html-keyboard-response","129","222361","0.0-2.0-16.0-1.0","33","59186","male","null","","","","null","","14","","","222034","1","","","","","","300","6000","327","6521","300","","","","","","","","","","","","","","","","","","","","","","","","","","","","","","","","","","","","","","","","","","","","","","","","","","","","",""
"","localizer","","html-keyboard-response","130","222794","0.0-2.0-17.0-0.0","33","59186","male","NaN","","","","null","NaN","15","","Stimuli/Experimental_stims/localizer/objects/hipster-mum-XookgCxFw6Q-unsplash.jpg","222361","1","objects","","0","1","0","400","6300","433","6848","","","","","","","","","","","","","","","","","","","","","","","","","","","","","","","","","","","","","","","","","","","","","","","","","","","","","",""
"","iti_localizer","","html-keyboard-response","131","223122","0.0-2.0-17.0-1.0","33","59186","male","null","","","","null","","15","","","222794","1","","","","","","300","6700","328","7281","300","","","","","","","","","","","","","","","","","","","","","","","","","","","","","","","","","","","","","","","","","","","","","","","","","","","","",""
"","localizer","","html-keyboard-response","132","223554","0.0-2.0-18.0-0.0","33","59186","male","NaN","","","","null","NaN","16","","Stimuli/Experimental_stims/localizer/objects/quino-al-8gWEAAXJjtI-unsplash.jpg","223122","1","objects","","0","1","0","400","7000","432","7609","","","","","","","","","","","","","","","","","","","","","","","","","","","","","","","","","","","","","","","","","","","","","","","","","","","","","",""
"","iti_localizer","","html-keyboard-response","133","223881","0.0-2.0-18.0-1.0","33","59186","male","null","","","","null","","16","","","223554","1","","","","","","300","7400","327","8041","300","","","","","","","","","","","","","","","","","","","","","","","","","","","","","","","","","","","","","","","","","","","","","","","","","","","","",""
"","localizer","","html-keyboard-response","134","224308","0.0-2.0-19.0-0.0","33","59186","male","NaN","","","","null","NaN","17","","Stimuli/Experimental_stims/localizer/objects/florian-klauer-mk7D-4UCfmg-unsplash.jpg","223881","1","objects","","0","1","0","400","7700","427","8368","","","","","","","","","","","","","","","","","","","","","","","","","","","","","","","","","","","","","","","","","","","","","","","","","","","","","",""
"","iti_localizer","","html-keyboard-response","135","224633","0.0-2.0-19.0-1.0","33","59186","male","null","","","","null","","17","","","224308","1","","","","","","300","8100","325","8795","300","","","","","","","","","","","","","","","","","","","","","","","","","","","","","","","","","","","","","","","","","","","","","","","","","","","","",""
"","localizer","","html-keyboard-response","136","225065","0.0-2.0-20.0-0.0","33","59186","male","NaN","","","","null","NaN","18","","Stimuli/Experimental_stims/localizer/objects/andrew-petrov-TVJqDat4MAw-unsplash.jpg","224633","1","objects","","0","1","0","400","8400","432","9120","","","","","","","","","","","","","","","","","","","","","","","","","","","","","","","","","","","","","","","","","","","","","","","","","","","","","",""
"","iti_localizer","","html-keyboard-response","137","225395","0.0-2.0-20.0-1.0","33","59186","male","null","","","","null","","18","","","225065","1","","","","","","300","8800","330","9552","300","","","","","","","","","","","","","","","","","","","","","","","","","","","","","","","","","","","","","","","","","","","","","","","","","","","","",""
"","localizer","","html-keyboard-response","138","225826","0.0-2.0-21.0-0.0","33","59186","male","NaN","","","","null","NaN","19","","Stimuli/Experimental_stims/localizer/objects/carlos-felipe-ramirez-mesa-HW7bfB3ERSQ-unsplash.jpg","225395","1","objects","","0","1","0","400","9100","431","9882","","","","","","","","","","","","","","","","","","","","","","","","","","","","","","","","","","","","","","","","","","","","","","","","","","","","","",""
"","iti_localizer","","html-keyboard-response","139","226153","0.0-2.0-21.0-1.0","33","59186","male","null","","","","null","","19","","","225826","1","","","","","","300","9500","327","10313","300","","","","","","","","","","","","","","","","","","","","","","","","","","","","","","","","","","","","","","","","","","","","","","","","","","","","",""
"","localizer","","html-keyboard-response","140","226586","0.0-2.0-22.0-0.0","33","59186","male","NaN","","","","null","NaN","20","","Stimuli/Experimental_stims/localizer/objects/yoann-siloine-_T4w3JDm6ug-unsplash.jpg","226153","1","objects","","1","1","0","400","9800","433","10640","","","","","","","","","","","","","","","","","","","","","","","","","","","","","","","","","","","","","","","","","","","","","","","","","","","","","",""
"","iti_localizer","","html-keyboard-response","141","226913","0.0-2.0-22.0-1.0","33","59186","male","null","","","","null","","20","","","226586","1","","","","","","300","10200","327","11073","300","","","","","","","","","","","","","","","","","","","","","","","","","","","","","","","","","","","","","","","","","","","","","","","","","","","","",""
"","localizer","","html-keyboard-response","142","227346","0.0-2.0-23.0-0.0","33","59186","male","NaN","","","","null","NaN","21","","Stimuli/Experimental_stims/localizer/objects/ales-krivec-ZMZHcvIVgbg-unsplash.jpg","226913","1","objects","","0","1","0","400","10500","433","11400","","","","","","","","","","","","","","","","","","","","","","","","","","","","","","","","","","","","","","","","","","","","","","","","","","","","","",""
"","iti_localizer","","html-keyboard-response","143","227672","0.0-2.0-23.0-1.0","33","59186","male","null","","","","null","","21","","","227346","1","","","","","","300","10900","326","11833","300","","","","","","","","","","","","","","","","","","","","","","","","","","","","","","","","","","","","","","","","","","","","","","","","","","","","",""
"","localizer","","html-keyboard-response","144","228106","0.0-2.0-24.0-0.0","33","59186","male","NaN","","","","null","NaN","22","","Stimuli/Experimental_stims/localizer/objects/designecologist-hvgd0ygXuQQ-unsplash.jpg","227672","1","objects","","0","1","0","400","11200","434","12159","","","","","","","","","","","","","","","","","","","","","","","","","","","","","","","","","","","","","","","","","","","","","","","","","","","","","",""
"","iti_localizer","","html-keyboard-response","145","228434","0.0-2.0-24.0-1.0","33","59186","male","null","","","","null","","22","","","228106","1","","","","","","300","11600","328","12593","300","","","","","","","","","","","","","","","","","","","","","","","","","","","","","","","","","","","","","","","","","","","","","","","","","","","","",""
"","localizer","","html-keyboard-response","146","228867","0.0-2.0-25.0-0.0","33","59186","male","NaN","","","","null","NaN","23","","Stimuli/Experimental_stims/localizer/objects/dario-mendez-hnJ2VNZzbns-unsplash.jpg","228434","1","objects","","0","1","0","400","11900","433","12921","","","","","","","","","","","","","","","","","","","","","","","","","","","","","","","","","","","","","","","","","","","","","","","","","","","","","",""
"","iti_localizer","","html-keyboard-response","147","229193","0.0-2.0-25.0-1.0","33","59186","male","null","","","","null","","23","","","228867","1","","","","","","300","12300","326","13354","300","","","","","","","","","","","","","","","","","","","","","","","","","","","","","","","","","","","","","","","","","","","","","","","","","","","","",""
"","localizer","","html-keyboard-response","148","229625","0.0-2.0-26.0-0.0","33","59186","male","NaN","","","","null","NaN","24","","Stimuli/Experimental_stims/localizer/objects/muhammad-toqeer-NRJ9ipvz2iE-unsplash.jpg","229193","1","objects","","0","1","0","400","12600","432","13680","","","","","","","","","","","","","","","","","","","","","","","","","","","","","","","","","","","","","","","","","","","","","","","","","","","","","",""
"","iti_localizer","","html-keyboard-response","149","229953","0.0-2.0-26.0-1.0","33","59186","male","null","","","","null","","24","","","229625","1","","","","","","300","13000","328","14112","300","","","","","","","","","","","","","","","","","","","","","","","","","","","","","","","","","","","","","","","","","","","","","","","","","","","","",""
"","localizer","","html-keyboard-response","150","230380","0.0-2.0-27.0-0.0","33","59186","male","399","","","","68","0","25","","Stimuli/Experimental_stims/localizer/objects/markus-spiske-ANrVtttbNss-unsplash.jpg","229953","1","objects","","0","0","1","400","13300","427","14440","","","","","","","","","","","","","","","","","","","","","","","","","","","","","","","","","","","","","","","","","","","","","","","","","","","","","",""
"","iti_localizer","","html-keyboard-response","151","244410","0.0-2.0-27.0-1.0","33","59186","male","null","","","","null","","25","","","230380","1","","","","","","14000","13700","14030","14867","14000","","","","","","","","","","","","","","","","","","","","","","","","","","","","","","","","","","","","","","","","","","","","","","","","","","","","",""
"","localizer","","html-keyboard-response","152","244842","0.0-2.0-28.0-0.0","33","59186","male","NaN","","","","null","NaN","26","","Stimuli/Experimental_stims/localizer/body_parts/jan-romero-DL4DDQb8yjc-unsplash.jpg","244410","1","body_parts","","0","1","0","400","27700","432","28897","","","","","","","","","","","","","","","","","","","","","","","","","","","","","","","","","","","","","","","","","","","","","","","","","","","","","",""
"","iti_localizer","","html-keyboard-response","153","245169","0.0-2.0-28.0-1.0","33","59186","male","null","","","","null","","26","","","244842","1","","","","","","300","28100","327","29329","300","","","","","","","","","","","","","","","","","","","","","","","","","","","","","","","","","","","","","","","","","","","","","","","","","","","","",""
"","localizer","","html-keyboard-response","154","245601","0.0-2.0-29.0-0.0","33","59186","male","270","","","","68","0","27","","Stimuli/Experimental_stims/localizer/body_parts/juja-han-Z8-6EI2tYtw-unsplash.jpg","245169","1","body_parts","","0","0","1","400","28400","432","29656","","","","","","","","","","","","","","","","","","","","","","","","","","","","","","","","","","","","","","","","","","","","","","","","","","","","","",""
"","iti_localizer","","html-keyboard-response","155","245931","0.0-2.0-29.0-1.0","33","59186","male","null","","","","null","","27","","","245601","1","","","","","","300","28800","330","30088","300","","","","","","","","","","","","","","","","","","","","","","","","","","","","","","","","","","","","","","","","","","","","","","","","","","","","",""
"","localizer","","html-keyboard-response","156","246362","0.0-2.0-30.0-0.0","33","59186","male","328","","","","68","0","28","","Stimuli/Experimental_stims/localizer/body_parts/kai-wenzel-zYDJOxjaZrQ-unsplash.jpg","245931","1","body_parts","","1","0","0","400","29100","431","30418","","","","","","","","","","","","","","","","","","","","","","","","","","","","","","","","","","","","","","","","","","","","","","","","","","","","","",""
"","iti_localizer","","html-keyboard-response","157","246690","0.0-2.0-30.0-1.0","33","59186","male","null","","","","null","","28","","","246362","1","","","","","","300","29500","328","30849","300","","","","","","","","","","","","","","","","","","","","","","","","","","","","","","","","","","","","","","","","","","","","","","","","","","","","",""
"","localizer","","html-keyboard-response","158","247122","0.0-2.0-31.0-0.0","33","59186","male","NaN","","","","null","NaN","29","","Stimuli/Experimental_stims/localizer/body_parts/igordoon-primus-CdyHqfrbGIs-unsplash.jpg","246690","1","body_parts","","0","1","0","400","29800","432","31177","","","","","","","","","","","","","","","","","","","","","","","","","","","","","","","","","","","","","","","","","","","","","","","","","","","","","",""
"","iti_localizer","","html-keyboard-response","159","247449","0.0-2.0-31.0-1.0","33","59186","male","null","","","","null","","29","","","247122","1","","","","","","300","30200","327","31609","300","","","","","","","","","","","","","","","","","","","","","","","","","","","","","","","","","","","","","","","","","","","","","","","","","","","","",""
"","localizer","","html-keyboard-response","160","247882","0.0-2.0-32.0-0.0","33","59186","male","NaN","","","","null","NaN","30","","Stimuli/Experimental_stims/localizer/body_parts/nick-page-WTNmgJtwzGI-unsplash.jpg","247449","1","body_parts","","0","1","0","400","30500","433","31936","","","","","","","","","","","","","","","","","","","","","","","","","","","","","","","","","","","","","","","","","","","","","","","","","","","","","",""
"","iti_localizer","","html-keyboard-response","161","248226","0.0-2.0-32.0-1.0","33","59186","male","null","","","","null","","30","","","247882","1","","","","","","300","30900","344","32369","300","","","","","","","","","","","","","","","","","","","","","","","","","","","","","","","","","","","","","","","","","","","","","","","","","","","","",""
"","localizer","","html-keyboard-response","162","248658","0.0-2.0-33.0-0.0","33","59186","male","NaN","","","","null","NaN","31","","Stimuli/Experimental_stims/localizer/body_parts/callum-skelton-3KLMq7y46nA-unsplash.jpg","248226","1","body_parts","","0","1","0","400","31200","432","32713","","","","","","","","","","","","","","","","","","","","","","","","","","","","","","","","","","","","","","","","","","","","","","","","","","","","","",""
"","iti_localizer","","html-keyboard-response","163","248988","0.0-2.0-33.0-1.0","33","59186","male","null","","","","null","","31","","","248658","1","","","","","","300","31600","330","33145","300","","","","","","","","","","","","","","","","","","","","","","","","","","","","","","","","","","","","","","","","","","","","","","","","","","","","",""
"","localizer","","html-keyboard-response","164","249418","0.0-2.0-34.0-0.0","33","59186","male","NaN","","","","null","NaN","32","","Stimuli/Experimental_stims/localizer/body_parts/anelya-okapova-V69kmOyZ3SU-unsplash.jpg","248988","1","body_parts","","0","1","0","400","31900","430","33475","","","","","","","","","","","","","","","","","","","","","","","","","","","","","","","","","","","","","","","","","","","","","","","","","","","","","",""
"","iti_localizer","","html-keyboard-response","165","249745","0.0-2.0-34.0-1.0","33","59186","male","null","","","","null","","32","","","249418","1","","","","","","300","32300","327","33905","300","","","","","","","","","","","","","","","","","","","","","","","","","","","","","","","","","","","","","","","","","","","","","","","","","","","","",""
"","localizer","","html-keyboard-response","166","250179","0.0-2.0-35.0-0.0","33","59186","male","NaN","","","","null","NaN","33","","Stimuli/Experimental_stims/localizer/body_parts/jeremy-yap-TfJEi17kA0w-unsplash.jpg","249745","1","body_parts","","0","1","0","400","32600","434","34232","","","","","","","","","","","","","","","","","","","","","","","","","","","","","","","","","","","","","","","","","","","","","","","","","","","","","",""
"","iti_localizer","","html-keyboard-response","167","250505","0.0-2.0-35.0-1.0","33","59186","male","null","","","","null","","33","","","250179","1","","","","","","300","33000","326","34666","300","","","","","","","","","","","","","","","","","","","","","","","","","","","","","","","","","","","","","","","","","","","","","","","","","","","","",""
"","localizer","","html-keyboard-response","168","250939","0.0-2.0-36.0-0.0","33","59186","male","NaN","","","","null","NaN","34","","Stimuli/Experimental_stims/localizer/body_parts/debby-hudson--B_757qSA4k-unsplash.jpg","250505","1","body_parts","","0","1","0","400","33300","434","34992","","","","","","","","","","","","","","","","","","","","","","","","","","","","","","","","","","","","","","","","","","","","","","","","","","","","","",""
"","iti_localizer","","html-keyboard-response","169","251266","0.0-2.0-36.0-1.0","33","59186","male","null","","","","null","","34","","","250939","1","","","","","","300","33700","327","35426","300","","","","","","","","","","","","","","","","","","","","","","","","","","","","","","","","","","","","","","","","","","","","","","","","","","","","",""
"","localizer","","html-keyboard-response","170","251698","0.0-2.0-37.0-0.0","33","59186","male","NaN","","","","null","NaN","35","","Stimuli/Experimental_stims/localizer/body_parts/danie-franco-jyyNiSEcCl4-unsplash.jpg","251266","1","body_parts","","0","1","0","400","34000","432","35753","","","","","","","","","","","","","","","","","","","","","","","","","","","","","","","","","","","","","","","","","","","","","","","","","","","","","",""
"","iti_localizer","","html-keyboard-response","171","252024","0.0-2.0-37.0-1.0","33","59186","male","null","","","","null","","35","","","251698","1","","","","","","300","34400","326","36185","300","","","","","","","","","","","","","","","","","","","","","","","","","","","","","","","","","","","","","","","","","","","","","","","","","","","","",""
"","localizer","","html-keyboard-response","172","252449","0.0-2.0-38.0-0.0","33","59186","male","380","","","","68","0","36","","Stimuli/Experimental_stims/localizer/body_parts/toan-nguyen-VIeLuUFzesg-unsplash.jpg","252024","1","body_parts","","0","0","1","400","34700","425","36511","","","","","","","","","","","","","","","","","","","","","","","","","","","","","","","","","","","","","","","","","","","","","","","","","","","","","",""
"","iti_localizer","","html-keyboard-response","173","252781","0.0-2.0-38.0-1.0","33","59186","male","null","","","","null","","36","","","252449","1","","","","","","300","35100","332","36936","300","","","","","","","","","","","","","","","","","","","","","","","","","","","","","","","","","","","","","","","","","","","","","","","","","","","","",""
"","localizer","","html-keyboard-response","174","253222","0.0-2.0-39.0-0.0","33","59186","male","411","","","","68","0","37","","Stimuli/Experimental_stims/localizer/body_parts/femme-spirit-RGYBDUHYbyM-unsplash.jpg","252781","1","body_parts","","0","0","1","400","35400","441","37268","","","","","","","","","","","","","","","","","","","","","","","","","","","","","","","","","","","","","","","","","","","","","","","","","","","","","",""
"","iti_localizer","","html-keyboard-response","175","253547","0.0-2.0-39.0-1.0","33","59186","male","null","","","","null","","37","","","253222","1","","","","","","300","35800","325","37709","300","","","","","","","","","","","","","","","","","","","","","","","","","","","","","","","","","","","","","","","","","","","","","","","","","","","","",""
"","localizer","","html-keyboard-response","176","253978","0.0-2.0-40.0-0.0","33","59186","male","NaN","","","","null","NaN","38","","Stimuli/Experimental_stims/localizer/body_parts/sincerely-media-QyzlAZjm0r0-unsplash.jpg","253547","1","body_parts","","0","1","0","400","36100","431","38034","","","","","","","","","","","","","","","","","","","","","","","","","","","","","","","","","","","","","","","","","","","","","","","","","","","","","",""
"","iti_localizer","","html-keyboard-response","177","254305","0.0-2.0-40.0-1.0","33","59186","male","null","","","","null","","38","","","253978","1","","","","","","300","36500","327","38465","300","","","","","","","","","","","","","","","","","","","","","","","","","","","","","","","","","","","","","","","","","","","","","","","","","","","","",""
"","localizer","","html-keyboard-response","178","254737","0.0-2.0-41.0-0.0","33","59186","male","391","","","","68","0","39","","Stimuli/Experimental_stims/localizer/body_parts/betzy-arosemena-YHdgnygtVCQ-unsplash.jpg","254305","1","body_parts","","0","0","1","400","36800","432","38792","","","","","","","","","","","","","","","","","","","","","","","","","","","","","","","","","","","","","","","","","","","","","","","","","","","","","",""
"","iti_localizer","","html-keyboard-response","179","255066","0.0-2.0-41.0-1.0","33","59186","male","null","","","","null","","39","","","254737","1","","","","","","300","37200","329","39224","300","","","","","","","","","","","","","","","","","","","","","","","","","","","","","","","","","","","","","","","","","","","","","","","","","","","","",""
"","localizer","","html-keyboard-response","180","255499","0.0-2.0-42.0-0.0","33","59186","male","NaN","","","","null","NaN","40","","Stimuli/Experimental_stims/localizer/body_parts/nihal-karkala-LlOfbQD-IJ0-unsplash.jpg","255066","1","body_parts","","0","1","0","400","37500","433","39553","","","","","","","","","","","","","","","","","","","","","","","","","","","","","","","","","","","","","","","","","","","","","","","","","","","","","",""
"","iti_localizer","","html-keyboard-response","181","255825","0.0-2.0-42.0-1.0","33","59186","male","null","","","","null","","40","","","255499","1","","","","","","300","37900","326","39986","300","","","","","","","","","","","","","","","","","","","","","","","","","","","","","","","","","","","","","","","","","","","","","","","","","","","","",""
"","localizer","","html-keyboard-response","182","256257","0.0-2.0-43.0-0.0","33","59186","male","NaN","","","","null","NaN","41","","Stimuli/Experimental_stims/localizer/body_parts/nattalia-nunez-MB9sdDfZMSg-unsplash.jpg","255825","1","body_parts","","0","1","0","400","38200","432","40312","","","","","","","","","","","","","","","","","","","","","","","","","","","","","","","","","","","","","","","","","","","","","","","","","","","","","",""
"","iti_localizer","","html-keyboard-response","183","256585","0.0-2.0-43.0-1.0","33","59186","male","null","","","","null","","41","","","256257","1","","","","","","300","38600","328","40744","300","","","","","","","","","","","","","","","","","","","","","","","","","","","","","","","","","","","","","","","","","","","","","","","","","","","","",""
"","localizer","","html-keyboard-response","184","257019","0.0-2.0-44.0-0.0","33","59186","male","NaN","","","","null","NaN","42","","Stimuli/Experimental_stims/localizer/body_parts/xavier-foucrier-dLZUNHsT8vo-unsplash.jpg","256585","1","body_parts","","0","1","0","400","38900","434","41072","","","","","","","","","","","","","","","","","","","","","","","","","","","","","","","","","","","","","","","","","","","","","","","","","","","","","",""
"","iti_localizer","","html-keyboard-response","185","257346","0.0-2.0-44.0-1.0","33","59186","male","null","","","","null","","42","","","257019","1","","","","","","300","39300","327","41506","300","","","","","","","","","","","","","","","","","","","","","","","","","","","","","","","","","","","","","","","","","","","","","","","","","","","","",""
"","localizer","","html-keyboard-response","186","257778","0.0-2.0-45.0-0.0","33","59186","male","NaN","","","","null","NaN","43","","Stimuli/Experimental_stims/localizer/body_parts/i-am_nah--S4OsO0c6Ts-unsplash.jpg","257346","1","body_parts","","0","1","0","400","39600","432","41833","","","","","","","","","","","","","","","","","","","","","","","","","","","","","","","","","","","","","","","","","","","","","","","","","","","","","",""
"","iti_localizer","","html-keyboard-response","187","258107","0.0-2.0-45.0-1.0","33","59186","male","null","","","","null","","43","","","257778","1","","","","","","300","40000","329","42265","300","","","","","","","","","","","","","","","","","","","","","","","","","","","","","","","","","","","","","","","","","","","","","","","","","","","","",""
"","localizer","","html-keyboard-response","188","258534","0.0-2.0-46.0-0.0","33","59186","male","NaN","","","","null","NaN","44","","Stimuli/Experimental_stims/localizer/body_parts/megan-menegay-UojxG_BJxnI-unsplash.jpg","258107","1","body_parts","","0","1","0","400","40300","427","42594","","","","","","","","","","","","","","","","","","","","","","","","","","","","","","","","","","","","","","","","","","","","","","","","","","","","","",""
"","iti_localizer","","html-keyboard-response","189","258860","0.0-2.0-46.0-1.0","33","59186","male","null","","","","null","","44","","","258534","1","","","","","","300","40700","326","43021","300","","","","","","","","","","","","","","","","","","","","","","","","","","","","","","","","","","","","","","","","","","","","","","","","","","","","",""
"","localizer","","html-keyboard-response","190","259290","0.0-2.0-47.0-0.0","33","59186","male","NaN","","","","null","NaN","45","","Stimuli/Experimental_stims/localizer/body_parts/priscilla-du-preez-e6fcNpur53A-unsplash.jpg","258860","1","body_parts","","1","1","0","400","41000","430","43347","","","","","","","","","","","","","","","","","","","","","","","","","","","","","","","","","","","","","","","","","","","","","","","","","","","","","",""
"","iti_localizer","","html-keyboard-response","191","273322","0.0-2.0-47.0-1.0","33","59186","male","null","","","","null","","45","","","259290","1","","","","","","14000","41400","14032","43777","14000","","","","","","","","","","","","","","","","","","","","","","","","","","","","","","","","","","","","","","","","","","","","","","","","","","","","",""
"","localizer","","html-keyboard-response","192","273753","0.0-2.0-48.0-0.0","33","59186","male","NaN","","","","null","NaN","46","","Stimuli/Experimental_stims/localizer/faces/jake-nackos-IF9TK5Uy-KI-unsplash.jpg","273322","1","faces","","0","1","0","400","55400","431","57809","","","","","","","","","","","","","","","","","","","","","","","","","","","","","","","","","","","","","","","","","","","","","","","","","","","","","",""
"","iti_localizer","","html-keyboard-response","193","274081","0.0-2.0-48.0-1.0","33","59186","male","null","","","","null","","46","","","273753","1","","","","","","300","55800","328","58240","300","","","","","","","","","","","","","","","","","","","","","","","","","","","","","","","","","","","","","","","","","","","","","","","","","","","","",""
"","localizer","","html-keyboard-response","194","274517","0.0-2.0-49.0-0.0","33","59186","male","NaN","","","","null","NaN","47","","Stimuli/Experimental_stims/localizer/faces/ethan-haddox-__ng3cRXmFE-unsplash.jpg","274081","1","faces","","0","1","0","400","56100","436","58568","","","","","","","","","","","","","","","","","","","","","","","","","","","","","","","","","","","","","","","","","","","","","","","","","","","","","",""
"","iti_localizer","","html-keyboard-response","195","274841","0.0-2.0-49.0-1.0","33","59186","male","null","","","","null","","47","","","274517","1","","","","","","300","56500","324","59004","300","","","","","","","","","","","","","","","","","","","","","","","","","","","","","","","","","","","","","","","","","","","","","","","","","","","","",""
"","localizer","","html-keyboard-response","196","275274","0.0-2.0-50.0-0.0","33","59186","male","NaN","","","","null","NaN","48","","Stimuli/Experimental_stims/localizer/faces/samuel-dixon--fQ5XNOcqFQ-unsplash.jpg","274841","1","faces","","1","1","0","400","56800","433","59328","","","","","","","","","","","","","","","","","","","","","","","","","","","","","","","","","","","","","","","","","","","","","","","","","","","","","",""
"","iti_localizer","","html-keyboard-response","197","275601","0.0-2.0-50.0-1.0","33","59186","male","null","","","","null","","48","","","275274","1","","","","","","300","57200","327","59761","300","","","","","","","","","","","","","","","","","","","","","","","","","","","","","","","","","","","","","","","","","","","","","","","","","","","","",""
"","localizer","","html-keyboard-response","198","276034","0.0-2.0-51.0-0.0","33","59186","male","394","","","","68","0","49","","Stimuli/Experimental_stims/localizer/faces/jakob-owens-lkMJcGDZLVs-unsplash.jpg","275601","1","faces","","0","0","1","400","57500","433","60088","","","","","","","","","","","","","","","","","","","","","","","","","","","","","","","","","","","","","","","","","","","","","","","","","","","","","",""
"","iti_localizer","","html-keyboard-response","199","276361","0.0-2.0-51.0-1.0","33","59186","male","null","","","","null","","49","","","276034","1","","","","","","300","57900","327","60521","300","","","","","","","","","","","","","","","","","","","","","","","","","","","","","","","","","","","","","","","","","","","","","","","","","","","","",""
"","localizer","","html-keyboard-response","200","276793","0.0-2.0-52.0-0.0","33","59186","male","NaN","","","","null","NaN","50","","Stimuli/Experimental_stims/localizer/faces/joseph-gonzalez-iFgRcqHznqg-unsplash.jpg","276361","1","faces","","0","1","0","400","58200","432","60848","","","","","","","","","","","","","","","","","","","","","","","","","","","","","","","","","","","","","","","","","","","","","","","","","","","","","",""
"","iti_localizer","","html-keyboard-response","201","277121","0.0-2.0-52.0-1.0","33","59186","male","null","","","","null","","50","","","276793","1","","","","","","300","58600","328","61280","300","","","","","","","","","","","","","","","","","","","","","","","","","","","","","","","","","","","","","","","","","","","","","","","","","","","","",""
"","localizer","","html-keyboard-response","202","277553","0.0-2.0-53.0-0.0","33","59186","male","NaN","","","","null","NaN","51","","Stimuli/Experimental_stims/localizer/faces/tyler-nix-ZGa9d1a_4tA-unsplash.jpg","277121","1","faces","","0","1","0","400","58900","432","61608","","","","","","","","","","","","","","","","","","","","","","","","","","","","","","","","","","","","","","","","","","","","","","","","","","","","","",""
"","iti_localizer","","html-keyboard-response","203","277882","0.0-2.0-53.0-1.0","33","59186","male","null","","","","null","","51","","","277553","1","","","","","","300","59300","329","62040","300","","","","","","","","","","","","","","","","","","","","","","","","","","","","","","","","","","","","","","","","","","","","","","","","","","","","",""
"","localizer","","html-keyboard-response","204","278316","0.0-2.0-54.0-0.0","33","59186","male","NaN","","","","null","NaN","52","","Stimuli/Experimental_stims/localizer/faces/allef-vinicius-C_1jjFJioWg-unsplash.jpg","277882","1","faces","","0","1","0","400","59600","434","62369","","","","","","","","","","","","","","","","","","","","","","","","","","","","","","","","","","","","","","","","","","","","","","","","","","","","","",""
"","iti_localizer","","html-keyboard-response","205","278641","0.0-2.0-54.0-1.0","33","59186","male","null","","","","null","","52","","","278316","1","","","","","","300","60000","325","62803","300","","","","","","","","","","","","","","","","","","","","","","","","","","","","","","","","","","","","","","","","","","","","","","","","","","","","",""
"","localizer","","html-keyboard-response","206","279072","0.0-2.0-55.0-0.0","33","59186","male","383","","","","68","0","53","","Stimuli/Experimental_stims/localizer/faces/midas-hofstra-tidSLv-UaNs-unsplash.jpg","278641","1","faces","","0","0","1","400","60300","431","63128","","","","","","","","","","","","","","","","","","","","","","","","","","","","","","","","","","","","","","","","","","","","","","","","","","","","","",""
"","iti_localizer","","html-keyboard-response","207","279401","0.0-2.0-55.0-1.0","33","59186","male","null","","","","null","","53","","","279072","1","","","","","","300","60700","329","63559","300","","","","","","","","","","","","","","","","","","","","","","","","","","","","","","","","","","","","","","","","","","","","","","","","","","","","",""
"","localizer","","html-keyboard-response","208","279834","0.0-2.0-56.0-0.0","33","59186","male","NaN","","","","null","NaN","54","","Stimuli/Experimental_stims/localizer/faces/elijah-hiett-umfpFoKxIVg-unsplash.jpg","279401","1","faces","","0","1","0","400","61000","433","63888","","","","","","","","","","","","","","","","","","","","","","","","","","","","","","","","","","","","","","","","","","","","","","","","","","","","","",""
"","iti_localizer","","html-keyboard-response","209","280161","0.0-2.0-56.0-1.0","33","59186","male","null","","","","null","","54","","","279834","1","","","","","","300","61400","327","64321","300","","","","","","","","","","","","","","","","","","","","","","","","","","","","","","","","","","","","","","","","","","","","","","","","","","","","",""
"","localizer","","html-keyboard-response","210","280595","0.0-2.0-57.0-0.0","33","59186","male","NaN","","","","null","NaN","55","","Stimuli/Experimental_stims/localizer/faces/austin-wade-X6Uj51n5CE8-unsplash.jpg","280161","1","faces","","0","1","0","400","61700","434","64648","","","","","","","","","","","","","","","","","","","","","","","","","","","","","","","","","","","","","","","","","","","","","","","","","","","","","",""
"","iti_localizer","","html-keyboard-response","211","280920","0.0-2.0-57.0-1.0","33","59186","male","null","","","","null","","55","","","280595","1","","","","","","300","62100","325","65082","300","","","","","","","","","","","","","","","","","","","","","","","","","","","","","","","","","","","","","","","","","","","","","","","","","","","","",""
"","localizer","","html-keyboard-response","212","281357","0.0-2.0-58.0-0.0","33","59186","male","NaN","","","","null","NaN","56","","Stimuli/Experimental_stims/localizer/faces/mathias-huysmans-U4JDjYmjn1g-unsplash.jpg","280920","1","faces","","0","1","0","400","62400","437","65407","","","","","","","","","","","","","","","","","","","","","","","","","","","","","","","","","","","","","","","","","","","","","","","","","","","","","",""
"","iti_localizer","","html-keyboard-response","213","281682","0.0-2.0-58.0-1.0","33","59186","male","null","","","","null","","56","","","281357","1","","","","","","300","62800","325","65844","300","","","","","","","","","","","","","","","","","","","","","","","","","","","","","","","","","","","","","","","","","","","","","","","","","","","","",""
"","localizer","","html-keyboard-response","214","282114","0.0-2.0-59.0-0.0","33","59186","male","373","","","","68","0","57","","Stimuli/Experimental_stims/localizer/faces/ian-dooley-d1UPkiFd04A-unsplash.jpg","281682","1","faces","","0","0","1","400","63100","432","66169","","","","","","","","","","","","","","","","","","","","","","","","","","","","","","","","","","","","","","","","","","","","","","","","","","","","","",""
"","iti_localizer","","html-keyboard-response","215","282441","0.0-2.0-59.0-1.0","33","59186","male","null","","","","null","","57","","","282114","1","","","","","","300","63500","327","66601","300","","","","","","","","","","","","","","","","","","","","","","","","","","","","","","","","","","","","","","","","","","","","","","","","","","","","",""
"","localizer","","html-keyboard-response","216","282874","0.0-2.0-60.0-0.0","33","59186","male","398","","","","68","0","58","","Stimuli/Experimental_stims/localizer/faces/icons8-team-6LZuSzSwso0-unsplash.jpg","282441","1","faces","","0","0","1","400","63800","433","66928","","","","","","","","","","","","","","","","","","","","","","","","","","","","","","","","","","","","","","","","","","","","","","","","","","","","","",""
"","iti_localizer","","html-keyboard-response","217","283201","0.0-2.0-60.0-1.0","33","59186","male","null","","","","null","","58","","","282874","1","","","","","","300","64200","327","67361","300","","","","","","","","","","","","","","","","","","","","","","","","","","","","","","","","","","","","","","","","","","","","","","","","","","","","",""
"","localizer","","html-keyboard-response","218","283635","0.0-2.0-61.0-0.0","33","59186","male","374","","","","68","0","59","","Stimuli/Experimental_stims/localizer/faces/alexis-chloe-TYDkKEgc0Fg-unsplash.jpg","283201","1","faces","","0","0","1","400","64500","434","67688","","","","","","","","","","","","","","","","","","","","","","","","","","","","","","","","","","","","","","","","","","","","","","","","","","","","","",""
"","iti_localizer","","html-keyboard-response","219","283965","0.0-2.0-61.0-1.0","33","59186","male","null","","","","null","","59","","","283635","1","","","","","","300","64900","330","68122","300","","","","","","","","","","","","","","","","","","","","","","","","","","","","","","","","","","","","","","","","","","","","","","","","","","","","",""
"","localizer","","html-keyboard-response","220","284396","0.0-2.0-62.0-0.0","33","59186","male","NaN","","","","null","NaN","60","","Stimuli/Experimental_stims/localizer/faces/prince-akachi-LWkFHEGpleE-unsplash.jpg","283965","1","faces","","0","1","0","400","65200","431","68452","","","","","","","","","","","","","","","","","","","","","","","","","","","","","","","","","","","","","","","","","","","","","","","","","","","","","",""
"","iti_localizer","","html-keyboard-response","221","284721","0.0-2.0-62.0-1.0","33","59186","male","null","","","","null","","60","","","284396","1","","","","","","300","65600","325","68883","300","","","","","","","","","","","","","","","","","","","","","","","","","","","","","","","","","","","","","","","","","","","","","","","","","","","","",""
"","localizer","","html-keyboard-response","222","285153","0.0-2.0-63.0-0.0","33","59186","male","NaN","","","","null","NaN","61","","Stimuli/Experimental_stims/localizer/faces/katsiaryna-endruszkiewicz-BteCp6aq4GI-unsplash.jpg","284721","1","faces","","1","1","0","400","65900","432","69208","","","","","","","","","","","","","","","","","","","","","","","","","","","","","","","","","","","","","","","","","","","","","","","","","","","","","",""
"","iti_localizer","","html-keyboard-response","223","285491","0.0-2.0-63.0-1.0","33","59186","male","null","","","","null","","61","","","285153","1","","","","","","300","66300","338","69640","300","","","","","","","","","","","","","","","","","","","","","","","","","","","","","","","","","","","","","","","","","","","","","","","","","","","","",""
"","localizer","","html-keyboard-response","224","285923","0.0-2.0-64.0-0.0","33","59186","male","NaN","","","","null","NaN","62","","Stimuli/Experimental_stims/localizer/faces/hassan-khan-EGVccebWodM-unsplash.jpg","285491","1","faces","","0","1","0","400","66600","432","69978","","","","","","","","","","","","","","","","","","","","","","","","","","","","","","","","","","","","","","","","","","","","","","","","","","","","","",""
"","iti_localizer","","html-keyboard-response","225","286243","0.0-2.0-64.0-1.0","33","59186","male","null","","","","null","","62","","","285923","1","","","","","","300","67000","320","70410","300","","","","","","","","","","","","","","","","","","","","","","","","","","","","","","","","","","","","","","","","","","","","","","","","","","","","",""
"","localizer","","html-keyboard-response","226","286673","0.0-2.0-65.0-0.0","33","59186","male","385","","","","68","0","63","","Stimuli/Experimental_stims/localizer/faces/linkedin-sales-solutions-pAtA8xe_iVM-unsplash.jpg","286243","1","faces","","0","0","1","400","67300","430","70730","","","","","","","","","","","","","","","","","","","","","","","","","","","","","","","","","","","","","","","","","","","","","","","","","","","","","",""
"","iti_localizer","","html-keyboard-response","227","287002","0.0-2.0-65.0-1.0","33","59186","male","null","","","","null","","63","","","286673","1","","","","","","300","67700","329","71160","300","","","","","","","","","","","","","","","","","","","","","","","","","","","","","","","","","","","","","","","","","","","","","","","","","","","","",""
"","localizer","","html-keyboard-response","228","287435","0.0-2.0-66.0-0.0","33","59186","male","353","","","","68","0","64","","Stimuli/Experimental_stims/localizer/faces/philip-martin-5aGUyCW_PJw-unsplash.jpg","287002","1","faces","","0","0","1","400","68000","433","71489","","","","","","","","","","","","","","","","","","","","","","","","","","","","","","","","","","","","","","","","","","","","","","","","","","","","","",""
"","iti_localizer","","html-keyboard-response","229","287762","0.0-2.0-66.0-1.0","33","59186","male","null","","","","null","","64","","","287435","1","","","","","","300","68400","327","71922","300","","","","","","","","","","","","","","","","","","","","","","","","","","","","","","","","","","","","","","","","","","","","","","","","","","","","",""
"","localizer","","html-keyboard-response","230","288226","0.0-2.0-67.0-0.0","33","59186","male","340","","","","68","0","65","","Stimuli/Experimental_stims/localizer/faces/christina-wocintechchat-com-0Zx1bDv5BNY-unsplash.jpg","287762","1","faces","","0","0","1","400","68700","464","72249","","","","","","","","","","","","","","","","","","","","","","","","","","","","","","","","","","","","","","","","","","","","","","","","","","","","","",""
"","iti_localizer","","html-keyboard-response","231","302258","0.0-2.0-67.0-1.0","33","59186","male","null","","","","null","","65","","","288226","1","","","","","","14000","69100","14032","72713","14000","","","","","","","","","","","","","","","","","","","","","","","","","","","","","","","","","","","","","","","","","","","","","","","","","","","","",""
"","localizer","","html-keyboard-response","232","302690","0.0-2.0-68.0-0.0","33","59186","male","NaN","","","","null","NaN","66","","Stimuli/Experimental_stims/localizer/body_parts/bady-abbas-N-VEeMnm7gE-unsplash.jpg","302258","1","body_parts","","0","1","0","400","83100","432","86745","","","","","","","","","","","","","","","","","","","","","","","","","","","","","","","","","","","","","","","","","","","","","","","","","","","","","",""
"","iti_localizer","","html-keyboard-response","233","303019","0.0-2.0-68.0-1.0","33","59186","male","null","","","","null","","66","","","302690","1","","","","","","300","83500","329","87177","300","","","","","","","","","","","","","","","","","","","","","","","","","","","","","","","","","","","","","","","","","","","","","","","","","","","","",""
"","localizer","","html-keyboard-response","234","303455","0.0-2.0-69.0-0.0","33","59186","male","NaN","","","","null","NaN","67","","Stimuli/Experimental_stims/localizer/body_parts/hu-chen-tCbTGNwrFNM-unsplash.jpg","303019","1","body_parts","","0","1","0","400","83800","436","87506","","","","","","","","","","","","","","","","","","","","","","","","","","","","","","","","","","","","","","","","","","","","","","","","","","","","","",""
"","iti_localizer","","html-keyboard-response","235","303782","0.0-2.0-69.0-1.0","33","59186","male","null","","","","null","","67","","","303455","1","","","","","","300","84200","327","87942","300","","","","","","","","","","","","","","","","","","","","","","","","","","","","","","","","","","","","","","","","","","","","","","","","","","","","",""
"","localizer","","html-keyboard-response","236","304213","0.0-2.0-70.0-0.0","33","59186","male","401","","","","68","0","68","","Stimuli/Experimental_stims/localizer/body_parts/toa-heftiba-qxvWnfHb3-M-unsplash.jpg","303782","1","body_parts","","0","0","1","400","84500","431","88269","","","","","","","","","","","","","","","","","","","","","","","","","","","","","","","","","","","","","","","","","","","","","","","","","","","","","",""
"","iti_localizer","","html-keyboard-response","237","304536","0.0-2.0-70.0-1.0","33","59186","male","null","","","","null","","68","","","304213","1","","","","","","300","84900","323","88700","300","","","","","","","","","","","","","","","","","","","","","","","","","","","","","","","","","","","","","","","","","","","","","","","","","","","","",""
"","localizer","","html-keyboard-response","238","304972","0.0-2.0-71.0-0.0","33","59186","male","NaN","","","","null","NaN","69","","Stimuli/Experimental_stims/localizer/body_parts/matthew-wheeler-2_UxqsaDMmo-unsplash.jpg","304536","1","body_parts","","0","1","0","400","85200","436","89023","","","","","","","","","","","","","","","","","","","","","","","","","","","","","","","","","","","","","","","","","","","","","","","","","","","","","",""
"","iti_localizer","","html-keyboard-response","239","305296","0.0-2.0-71.0-1.0","33","59186","male","null","","","","null","","69","","","304972","1","","","","","","300","85600","324","89459","300","","","","","","","","","","","","","","","","","","","","","","","","","","","","","","","","","","","","","","","","","","","","","","","","","","","","",""
"","localizer","","html-keyboard-response","240","305730","0.0-2.0-72.0-0.0","33","59186","male","NaN","","","","null","NaN","70","","Stimuli/Experimental_stims/localizer/body_parts/billie-5OXE3KjDEfI-unsplash.jpg","305296","1","body_parts","","0","1","0","400","85900","434","89783","","","","","","","","","","","","","","","","","","","","","","","","","","","","","","","","","","","","","","","","","","","","","","","","","","","","","",""
"","iti_localizer","","html-keyboard-response","241","306060","0.0-2.0-72.0-1.0","33","59186","male","null","","","","null","","70","","","305730","1","","","","","","300","86300","330","90217","300","","","","","","","","","","","","","","","","","","","","","","","","","","","","","","","","","","","","","","","","","","","","","","","","","","","","",""
"","localizer","","html-keyboard-response","242","306499","0.0-2.0-73.0-0.0","33","59186","male","NaN","","","","null","NaN","71","","Stimuli/Experimental_stims/localizer/body_parts/lilartsy-1KkhQ8uL28g-unsplash.jpg","306060","1","body_parts","","1","1","0","400","86600","439","90547","","","","","","","","","","","","","","","","","","","","","","","","","","","","","","","","","","","","","","","","","","","","","","","","","","","","","",""
"","iti_localizer","","html-keyboard-response","243","306827","0.0-2.0-73.0-1.0","33","59186","male","null","","","","null","","71","","","306499","1","","","","","","300","87000","328","90986","300","","","","","","","","","","","","","","","","","","","","","","","","","","","","","","","","","","","","","","","","","","","","","","","","","","","","",""
"","localizer","","html-keyboard-response","244","307254","0.0-2.0-74.0-0.0","33","59186","male","400","","","","68","0","72","","Stimuli/Experimental_stims/localizer/body_parts/sincerely-media-Q7qRyaurQfo-unsplash.jpg","306827","1","body_parts","","0","0","1","400","87300","427","91314","","","","","","","","","","","","","","","","","","","","","","","","","","","","","","","","","","","","","","","","","","","","","","","","","","","","","",""
"","iti_localizer","","html-keyboard-response","245","307577","0.0-2.0-74.0-1.0","33","59186","male","null","","","","null","","72","","","307254","1","","","","","","300","87700","323","91741","300","","","","","","","","","","","","","","","","","","","","","","","","","","","","","","","","","","","","","","","","","","","","","","","","","","","","",""
"","localizer","","html-keyboard-response","246","308009","0.0-2.0-75.0-0.0","33","59186","male","385","","","","68","0","73","","Stimuli/Experimental_stims/localizer/body_parts/semen-zhuravlev-_XxH_mV8dnk-unsplash (1).jpg","307577","1","body_parts","","0","0","1","400","88000","432","92064","","","","","","","","","","","","","","","","","","","","","","","","","","","","","","","","","","","","","","","","","","","","","","","","","","","","","",""
"","iti_localizer","","html-keyboard-response","247","308338","0.0-2.0-75.0-1.0","33","59186","male","null","","","","null","","73","","","308009","1","","","","","","300","88400","329","92496","300","","","","","","","","","","","","","","","","","","","","","","","","","","","","","","","","","","","","","","","","","","","","","","","","","","","","",""
