"success","ttype","start_time","trial_type","trial_index","time_elapsed","internal_node_id","age","PID","gender","rt","responses","view_history","repeat_instructions","key_press","response","index","stimulus_index","path","start_time_elapsed","run","task","isi","is_odd_ball","no_response","acc","duration","onset","duration_time_elapsed","onset_time_elapsed","trial_duration","missed_checkup","left_chosen","chosen_stimulus","unchosen_stimulus","chosen_category","unchosen_category","chosen_rating","unchosen_rating","chosen_path","unchosen_path","pair_id","practice","scramble_screen_time","scramble_instructed_side","stim_type","iti","block","left_stimulus","right_stimulus","left_category","right_category","left_path","right_path","left_rating","right_rating","warning","scramble_acc","scramble_no_response","stimulus_id","item_id","outcome","response_rt","deliberation_reward_tally","choice_type","gain_left","left_item_id","right_item_id","higher_outcome_chosen","chosen_left","old_pair","pair_type","old_response","pair_acc","reward_type","outcome_response","outcome_rt","outcome_acc","category","choice","deliberated_stim","old_rating","new_rating","total_reward_tally"
"true","full_screen","d08172023hr1501","fullscreen","0","5015","0.0-0.0-0.0","30","30126","female","","","","","","","","","","","","","","","","","","","","","","","","","","","","","","","","","","","","","","","","","","","","","","","","","","","","","","","","","","","","","","","","","","","","","","","","","",""
"","get_id","","survey-text","1","23702","0.0-0.0-1.0","30","30126","female","18660","{""Q0"":""30"",""Q1"":""female""}","","","","","","","","","","","","","","","","","","","","","","","","","","","","","","","","","","","","","","","","","","","","","","","","","","","","","","","","","","","","","","","","","","","","","","","",""
"","ratings_instructions","","instructions","2","58444","0.0-1.0-0.0-0.0","30","30126","female","33670","","[{""page_index"":0,""viewing_time"":28143},{""page_index"":1,""viewing_time"":5526}]","","","","","","","","","","","","","","","","","","","","","","","","","","","","","","","","","","","","","","","","","","","","","","","","","","","","","","","","","","","","","","","","","","","","","","",""
"","rating_comprehension_check","","survey-multi-choice","3","67119","0.0-1.0-0.0-1.0","30","30126","female","8640","{""Q0"":""True"",""Q1"":""Mouse""}","","0","","","","","","","","","","","","","","","","","","","","","","","","","","","","","","","","","","","","","","","","","","","","","","","","","","","","","","","","","","","","","","","","","","","","","",""
"","","","html-keyboard-response","4","73391","0.0-1.0-1.0","30","30126","female","6249","","","","68","","","","","","","","","","","","","","","","","","","","","","","","","","","","","","","","","","","","","","","","","","","","","","","","","","","","","","","","","","","","","","","","","","","","",""
"","rating","","html-slider-response","5","88291","0.0-1.0-2.0","30","30126","female","14876","","","","","78","0","11","Stimuli/Experimental_stims/outdoor_scenes/stephen-leonardi-gyIRjKPXupE-unsplash.jpg","","","","","","","","","","","","","","","","","","","","","","","","","","","","","","","","","","","","","","","","","","","","","","","","","","","","","","","","","","","","","","","","",""
"","rating","","html-slider-response","6","92380","0.0-1.0-3.0","30","30126","female","4075","","","","","64","1","37","Stimuli/Experimental_stims/objects/alexander-andrews-VLGWE_SumrA-unsplash.jpg","","","","","","","","","","","","","","","","","","","","","","","","","","","","","","","","","","","","","","","","","","","","","","","","","","","","","","","","","","","","","","","","",""
"","rating","","html-slider-response","7","96321","0.0-1.0-4.0","30","30126","female","3925","","","","","82","2","43","Stimuli/Experimental_stims/objects/jonathan-greenaway-Y4hGgeiFn3s-unsplash.jpg","","","","","","","","","","","","","","","","","","","","","","","","","","","","","","","","","","","","","","","","","","","","","","","","","","","","","","","","","","","","","","","","",""
"","rating","","html-slider-response","8","110300","0.0-1.0-5.0","30","30126","female","13962","","","","","92","3","45","Stimuli/Experimental_stims/objects/leohoho-rngTKHXumy0-unsplash.jpg","","","","","","","","","","","","","","","","","","","","","","","","","","","","","","","","","","","","","","","","","","","","","","","","","","","","","","","","","","","","","","","","",""
"","rating","","html-slider-response","9","114188","0.0-1.0-6.0","30","30126","female","3865","","","","","70","4","1","Stimuli/Experimental_stims/outdoor_scenes/ashim-d-silva-S2Q5mdOrrVc-unsplash.jpg","","","","","","","","","","","","","","","","","","","","","","","","","","","","","","","","","","","","","","","","","","","","","","","","","","","","","","","","","","","","","","","","",""
"","rating","","html-slider-response","10","118657","0.0-1.0-7.0","30","30126","female","4456","","","","","78","5","4","Stimuli/Experimental_stims/outdoor_scenes/jarrett-kow-1ZOyYPOBn7I-unsplash.jpg","","","","","","","","","","","","","","","","","","","","","","","","","","","","","","","","","","","","","","","","","","","","","","","","","","","","","","","","","","","","","","","","",""
"","rating","","html-slider-response","11","122511","0.0-1.0-8.0","30","30126","female","3826","","","","","42","6","35","Stimuli/Experimental_stims/body_parts/wc-so-KH4AAPjb-tI-unsplash.jpg","","","","","","","","","","","","","","","","","","","","","","","","","","","","","","","","","","","","","","","","","","","","","","","","","","","","","","","","","","","","","","","","",""
"","rating","","html-slider-response","12","128479","0.0-1.0-9.0","30","30126","female","5946","","","","","42","7","24","Stimuli/Experimental_stims/body_parts/clay-banks-LjqARJaJotc-unsplash.jpg","","","","","","","","","","","","","","","","","","","","","","","","","","","","","","","","","","","","","","","","","","","","","","","","","","","","","","","","","","","","","","","","",""
"","rating","","html-slider-response","13","160750","0.0-1.0-10.0","30","30126","female","32249","","","","","56","8","6","Stimuli/Experimental_stims/outdoor_scenes/meng-ji-8BH_M-53CyA-unsplash.jpg","","","","","","","","","","","","","","","","","","","","","","","","","","","","","","","","","","","","","","","","","","","","","","","","","","","","","","","","","","","","","","","","",""
"","rating","","html-slider-response","14","165167","0.0-1.0-11.0","30","30126","female","4402","","","","","59","9","3","Stimuli/Experimental_stims/outdoor_scenes/henry-be-NLF6hTe4PAg-unsplash.jpg","","","","","","","","","","","","","","","","","","","","","","","","","","","","","","","","","","","","","","","","","","","","","","","","","","","","","","","","","","","","","","","","",""
"","rating","","html-slider-response","15","168784","0.0-1.0-12.0","30","30126","female","3603","","","","","65","10","5","Stimuli/Experimental_stims/outdoor_scenes/jeff-king-bJHWJeiHfHc-unsplash.jpg","","","","","","","","","","","","","","","","","","","","","","","","","","","","","","","","","","","","","","","","","","","","","","","","","","","","","","","","","","","","","","","","",""
"","rating","","html-slider-response","16","172788","0.0-1.0-13.0","30","30126","female","3985","","","","","18","11","25","Stimuli/Experimental_stims/body_parts/engin-akyurt-Q2rfH3GW39c-unsplash.jpg","","","","","","","","","","","","","","","","","","","","","","","","","","","","","","","","","","","","","","","","","","","","","","","","","","","","","","","","","","","","","","","","",""
"","rating","","html-slider-response","17","176796","0.0-1.0-14.0","30","30126","female","3994","","","","","30","12","21","Stimuli/Experimental_stims/faces/leilani-angel-K84vnnzxmTQ-unsplash.jpg","","","","","","","","","","","","","","","","","","","","","","","","","","","","","","","","","","","","","","","","","","","","","","","","","","","","","","","","","","","","","","","","",""
"","rating","","html-slider-response","18","181741","0.0-1.0-15.0","30","30126","female","4931","","","","","41","13","40","Stimuli/Experimental_stims/objects/fabian-blank-pElSkGRA2NU-unsplash.jpg","","","","","","","","","","","","","","","","","","","","","","","","","","","","","","","","","","","","","","","","","","","","","","","","","","","","","","","","","","","","","","","","",""
"","rating","","html-slider-response","19","185491","0.0-1.0-16.0","30","30126","female","3733","","","","","46","14","46","Stimuli/Experimental_stims/objects/mockup-graphics-PNsj6RiHAF4-unsplash.jpg","","","","","","","","","","","","","","","","","","","","","","","","","","","","","","","","","","","","","","","","","","","","","","","","","","","","","","","","","","","","","","","","",""
"","rating","","html-slider-response","20","189675","0.0-1.0-17.0","30","30126","female","4168","","","","","15","15","34","Stimuli/Experimental_stims/body_parts/wagner-santos-mBWMvIuVnso-unsplash.jpg","","","","","","","","","","","","","","","","","","","","","","","","","","","","","","","","","","","","","","","","","","","","","","","","","","","","","","","","","","","","","","","","",""
"","rating","","html-slider-response","21","193984","0.0-1.0-18.0","30","30126","female","4288","","","","","34","16","32","Stimuli/Experimental_stims/body_parts/towfiqu-barbhuiya-3AsiVDsZnHg-unsplash.jpg","","","","","","","","","","","","","","","","","","","","","","","","","","","","","","","","","","","","","","","","","","","","","","","","","","","","","","","","","","","","","","","","",""
"","rating","","html-slider-response","22","197522","0.0-1.0-19.0","30","30126","female","3518","","","","","43","17","18","Stimuli/Experimental_stims/faces/jessica-radanavong-mrYkTuAesKE-unsplash.jpg","","","","","","","","","","","","","","","","","","","","","","","","","","","","","","","","","","","","","","","","","","","","","","","","","","","","","","","","","","","","","","","","",""
"","rating","","html-slider-response","23","201520","0.0-1.0-20.0","30","30126","female","3983","","","","","46","18","22","Stimuli/Experimental_stims/faces/ravi-patel-VMGAbeeJTKo-unsplash.jpg","","","","","","","","","","","","","","","","","","","","","","","","","","","","","","","","","","","","","","","","","","","","","","","","","","","","","","","","","","","","","","","","",""
"","rating","","html-slider-response","24","205859","0.0-1.0-21.0","30","30126","female","4320","","","","","56","19","33","Stimuli/Experimental_stims/body_parts/tucker-good-36skLT5jZcc-unsplash.jpg","","","","","","","","","","","","","","","","","","","","","","","","","","","","","","","","","","","","","","","","","","","","","","","","","","","","","","","","","","","","","","","","",""
"","rating","","html-slider-response","25","210016","0.0-1.0-22.0","30","30126","female","4143","","","","","56","20","47","Stimuli/Experimental_stims/objects/ronaldo-arthur-vidal-Cdz_lvnl37k-unsplash.jpg","","","","","","","","","","","","","","","","","","","","","","","","","","","","","","","","","","","","","","","","","","","","","","","","","","","","","","","","","","","","","","","","",""
"","rating","","html-slider-response","26","213733","0.0-1.0-23.0","30","30126","female","3699","","","","","44","21","20","Stimuli/Experimental_stims/faces/justin-chen-J7Cf1Gch49E-unsplash.jpg","","","","","","","","","","","","","","","","","","","","","","","","","","","","","","","","","","","","","","","","","","","","","","","","","","","","","","","","","","","","","","","","",""
"","rating","","html-slider-response","27","217077","0.0-1.0-24.0","30","30126","female","3328","","","","","54","22","19","Stimuli/Experimental_stims/faces/joel-mott-LaK153ghdig-unsplash.jpg","","","","","","","","","","","","","","","","","","","","","","","","","","","","","","","","","","","","","","","","","","","","","","","","","","","","","","","","","","","","","","","","",""
"","rating","","html-slider-response","28","222215","0.0-1.0-25.0","30","30126","female","5118","","","","","21","23","42","Stimuli/Experimental_stims/objects/jess-bailey-nOeVi8DsN8U-unsplash.jpg","","","","","","","","","","","","","","","","","","","","","","","","","","","","","","","","","","","","","","","","","","","","","","","","","","","","","","","","","","","","","","","","",""
"","rating","","html-slider-response","29","226250","0.0-1.0-26.0","30","30126","female","4009","","","","","41","24","26","Stimuli/Experimental_stims/body_parts/engin-akyurt-x_3gyC42btc-unsplash.jpg","","","","","","","","","","","","","","","","","","","","","","","","","","","","","","","","","","","","","","","","","","","","","","","","","","","","","","","","","","","","","","","","",""
"","rating","","html-slider-response","30","231098","0.0-1.0-27.0","30","30126","female","4819","","","","","14","25","36","Stimuli/Experimental_stims/objects/alexander-andrews-JYGnB9gTCls-unsplash.jpg","","","","","","","","","","","","","","","","","","","","","","","","","","","","","","","","","","","","","","","","","","","","","","","","","","","","","","","","","","","","","","","","",""
"","rating","","html-slider-response","31","234370","0.0-1.0-28.0","30","30126","female","3245","","","","","47","26","41","Stimuli/Experimental_stims/objects/insung-yoon-w2JtIQQXoRU-unsplash.jpg","","","","","","","","","","","","","","","","","","","","","","","","","","","","","","","","","","","","","","","","","","","","","","","","","","","","","","","","","","","","","","","","",""
"","rating","","html-slider-response","32","238722","0.0-1.0-29.0","30","30126","female","4332","","","","","69","27","0","Stimuli/Experimental_stims/outdoor_scenes/aleksandra-boguslawska-MS7KD9Ti7FQ-unsplash.jpg","","","","","","","","","","","","","","","","","","","","","","","","","","","","","","","","","","","","","","","","","","","","","","","","","","","","","","","","","","","","","","","","",""
"","rating","","html-slider-response","33","242979","0.0-1.0-30.0","30","30126","female","4243","","","","","82","28","29","Stimuli/Experimental_stims/body_parts/manuel-schinner-ZwjFuJ7ebpk-unsplash.jpg","","","","","","","","","","","","","","","","","","","","","","","","","","","","","","","","","","","","","","","","","","","","","","","","","","","","","","","","","","","","","","","","",""
"","rating","","html-slider-response","34","246996","0.0-1.0-31.0","30","30126","female","3993","","","","","67","29","39","Stimuli/Experimental_stims/objects/charlesdeluvio-1-nx1QR5dTE-unsplash.jpg","","","","","","","","","","","","","","","","","","","","","","","","","","","","","","","","","","","","","","","","","","","","","","","","","","","","","","","","","","","","","","","","",""
"","rating","","html-slider-response","35","251089","0.0-1.0-32.0","30","30126","female","4066","","","","","75","30","27","Stimuli/Experimental_stims/body_parts/heike-mintel-i_Gns0ELnLw-unsplash.jpg","","","","","","","","","","","","","","","","","","","","","","","","","","","","","","","","","","","","","","","","","","","","","","","","","","","","","","","","","","","","","","","","",""
"","rating","","html-slider-response","36","255593","0.0-1.0-33.0","30","30126","female","4482","","","","","39","31","16","Stimuli/Experimental_stims/faces/freddy-kearney-o-ioeoATbIM-unsplash.jpg","","","","","","","","","","","","","","","","","","","","","","","","","","","","","","","","","","","","","","","","","","","","","","","","","","","","","","","","","","","","","","","","",""
"","rating","","html-slider-response","37","260564","0.0-1.0-34.0","30","30126","female","4955","","","","","68","32","8","Stimuli/Experimental_stims/outdoor_scenes/samsommer-vddccTqwal8-unsplash.jpg","","","","","","","","","","","","","","","","","","","","","","","","","","","","","","","","","","","","","","","","","","","","","","","","","","","","","","","","","","","","","","","","",""
"","rating","","html-slider-response","38","264077","0.0-1.0-35.0","30","30126","female","3500","","","","","66","33","38","Stimuli/Experimental_stims/objects/art-lasovsky-8XddFc6NkBY-unsplash.jpg","","","","","","","","","","","","","","","","","","","","","","","","","","","","","","","","","","","","","","","","","","","","","","","","","","","","","","","","","","","","","","","","",""
"","rating","","html-slider-response","39","268820","0.0-1.0-36.0","30","30126","female","4705","","","","","25","34","30","Stimuli/Experimental_stims/body_parts/mika-korhonen-Xodzxosar18-unsplash.jpg","","","","","","","","","","","","","","","","","","","","","","","","","","","","","","","","","","","","","","","","","","","","","","","","","","","","","","","","","","","","","","","","",""
"","rating","","html-slider-response","40","273147","0.0-1.0-37.0","30","30126","female","4304","","","","","33","35","23","Stimuli/Experimental_stims/faces/rikonavt-HQjfrvdTfak-unsplash.jpg","","","","","","","","","","","","","","","","","","","","","","","","","","","","","","","","","","","","","","","","","","","","","","","","","","","","","","","","","","","","","","","","",""
"","rating","","html-slider-response","41","277971","0.0-1.0-38.0","30","30126","female","4809","","","","","68","36","10","Stimuli/Experimental_stims/outdoor_scenes/shannon-kunkle-dM8INmkyDas-unsplash.jpg","","","","","","","","","","","","","","","","","","","","","","","","","","","","","","","","","","","","","","","","","","","","","","","","","","","","","","","","","","","","","","","","",""
"","rating","","html-slider-response","42","281809","0.0-1.0-39.0","30","30126","female","3820","","","","","61","37","12","Stimuli/Experimental_stims/faces/aiony-haust-jmATI5Q_YgY-unsplash.jpg","","","","","","","","","","","","","","","","","","","","","","","","","","","","","","","","","","","","","","","","","","","","","","","","","","","","","","","","","","","","","","","","",""
"","rating","","html-slider-response","43","286153","0.0-1.0-40.0","30","30126","female","4313","","","","","44","38","31","Stimuli/Experimental_stims/body_parts/sincerely-media-VN6DbKajo5s-unsplash.jpg","","","","","","","","","","","","","","","","","","","","","","","","","","","","","","","","","","","","","","","","","","","","","","","","","","","","","","","","","","","","","","","","",""
"","rating","","html-slider-response","44","291311","0.0-1.0-41.0","30","30126","female","5134","","","","","93","39","7","Stimuli/Experimental_stims/outdoor_scenes/petr-vysohlid-9fqwGqGLUxc-unsplash.jpg","","","","","","","","","","","","","","","","","","","","","","","","","","","","","","","","","","","","","","","","","","","","","","","","","","","","","","","","","","","","","","","","",""
"","rating","","html-slider-response","45","295662","0.0-1.0-42.0","30","30126","female","4334","","","","","41","40","15","Stimuli/Experimental_stims/faces/erik-lucatero-d2MSDujJl2g-unsplash.jpg","","","","","","","","","","","","","","","","","","","","","","","","","","","","","","","","","","","","","","","","","","","","","","","","","","","","","","","","","","","","","","","","",""
"","rating","","html-slider-response","46","299532","0.0-1.0-43.0","30","30126","female","3848","","","","","50","41","28","Stimuli/Experimental_stims/body_parts/ira-vishnevskaya-8DQAvdCby1I-unsplash.jpg","","","","","","","","","","","","","","","","","","","","","","","","","","","","","","","","","","","","","","","","","","","","","","","","","","","","","","","","","","","","","","","","",""
"","rating","","html-slider-response","47","303788","0.0-1.0-44.0","30","30126","female","4234","","","","","59","42","9","Stimuli/Experimental_stims/outdoor_scenes/sergey-pesterev-y-b_FOmJXdg-unsplash.jpg","","","","","","","","","","","","","","","","","","","","","","","","","","","","","","","","","","","","","","","","","","","","","","","","","","","","","","","","","","","","","","","","",""
"","rating","","html-slider-response","48","307908","0.0-1.0-45.0","30","30126","female","4105","","","","","72","43","2","Stimuli/Experimental_stims/outdoor_scenes/bruno-van-der-kraan-qez8mNJ3ilU-unsplash.jpg","","","","","","","","","","","","","","","","","","","","","","","","","","","","","","","","","","","","","","","","","","","","","","","","","","","","","","","","","","","","","","","","",""
"","rating","","html-slider-response","49","311641","0.0-1.0-46.0","30","30126","female","3720","","","","","32","44","17","Stimuli/Experimental_stims/faces/good-faces-xmSWVeGEnJw-unsplash.jpg","","","","","","","","","","","","","","","","","","","","","","","","","","","","","","","","","","","","","","","","","","","","","","","","","","","","","","","","","","","","","","","","",""
"","rating","","html-slider-response","50","315439","0.0-1.0-47.0","30","30126","female","3782","","","","","61","45","44","Stimuli/Experimental_stims/objects/kuiye-chen-NuOGFo4PudE-unsplash.jpg","","","","","","","","","","","","","","","","","","","","","","","","","","","","","","","","","","","","","","","","","","","","","","","","","","","","","","","","","","","","","","","","",""
"","rating","","html-slider-response","51","323407","0.0-1.0-48.0","30","30126","female","7949","","","","","41","46","13","Stimuli/Experimental_stims/faces/daniel-rigdon-dXmXKPP2L4E-unsplash.jpg","","","","","","","","","","","","","","","","","","","","","","","","","","","","","","","","","","","","","","","","","","","","","","","","","","","","","","","","","","","","","","","","",""
"","rating","","html-slider-response","52","327325","0.0-1.0-49.0","30","30126","female","3900","","","","","19","47","14","Stimuli/Experimental_stims/faces/david-siglin-UuW4psOb388-unsplash.jpg","","","","","","","","","","","","","","","","","","","","","","","","","","","","","","","","","","","","","","","","","","","","","","","","","","","","","","","","","","","","","","","","",""
"","localizer_instructions","","instructions","53","358849","0.0-2.0-0.0-0.0","30","30126","female","31442","","[{""page_index"":0,""viewing_time"":1229},{""page_index"":1,""viewing_time"":28136},{""page_index"":2,""viewing_time"":2075}]","","","","","","","","","","","","","","","","","","","","","","","","","","","","","","","","","","","","","","","","","","","","","","","","","","","","","","","","","","","","","","","","","","","","","","",""
"","localizer_comprehension_check","","survey-multi-choice","54","375968","0.0-2.0-0.0-1.0","30","30126","female","17088","{""Q0"":""True"",""Q1"":""K"",""Q2"":""D""}","","0","","","","","","","","","","","","","","","","","","","","","","","","","","","","","","","","","","","","","","","","","","","","","","","","","","","","","","","","","","","","","","","","","","","","","",""
"","","","html-keyboard-response","55","385731","0.0-2.0-1.0","30","30126","female","9744","","","","68","","","","","","","","","","","","","","","","","","","","","","","","","","","","","","","","","","","","","","","","","","","","","","","","","","","","","","","","","","","","","","","","","","","","",""
"","localizer","","html-keyboard-response","56","386149","0.0-2.0-2.0-0.0","30","30126","female","NaN","","","","null","NaN","0","","Stimuli/Practice_stims/Localizer/annie-spratt-g9KFpAfQ5bc-unsplash.jpg","385731","0","NaN","","0","1","0","400","0","418","0","","","","","","","","","","","","","","","","","","","","","","","","","","","","","","","","","","","","","","","","","","","","","","","","","","","","","",""
"","iti_localizer","","html-keyboard-response","57","386467","0.0-2.0-2.0-1.0","30","30126","female","null","","","","null","","0","","","386149","0","","","","","","300","400","318","418","300","","","","","","","","","","","","","","","","","","","","","","","","","","","","","","","","","","","","","","","","","","","","","","","","","","","","",""
"","localizer","","html-keyboard-response","58","386918","0.0-2.0-2.1-0.1","30","30126","female","NaN","","","","null","NaN","0","","Stimuli/Practice_stims/Localizer/annie-spratt-g9KFpAfQ5bc-unsplash.jpg","386467","0","NaN","","0","1","0","400","700","451","736","","","","","","","","","","","","","","","","","","","","","","","","","","","","","","","","","","","","","","","","","","","","","","","","","","","","","",""
"","iti_localizer","","html-keyboard-response","59","387246","0.0-2.0-2.1-1.1","30","30126","female","null","","","","null","","0","","","386918","0","","","","","","300","1100","328","1187","300","","","","","","","","","","","","","","","","","","","","","","","","","","","","","","","","","","","","","","","","","","","","","","","","","","","","",""
"","localizer","","html-keyboard-response","60","387683","0.0-2.0-2.2-0.2","30","30126","female","NaN","","","","null","NaN","0","","Stimuli/Practice_stims/Localizer/annie-spratt-g9KFpAfQ5bc-unsplash.jpg","387246","0","NaN","","0","1","0","400","1400","437","1515","","","","","","","","","","","","","","","","","","","","","","","","","","","","","","","","","","","","","","","","","","","","","","","","","","","","","",""
"","iti_localizer","","html-keyboard-response","61","388005","0.0-2.0-2.2-1.2","30","30126","female","null","","","","null","","0","","","387683","0","","","","","","300","1800","322","1952","300","","","","","","","","","","","","","","","","","","","","","","","","","","","","","","","","","","","","","","","","","","","","","","","","","","","","",""
"","localizer","","html-keyboard-response","62","388418","0.0-2.0-2.3-0.3","30","30126","female","NaN","","","","null","NaN","0","","Stimuli/Practice_stims/Localizer/annie-spratt-g9KFpAfQ5bc-unsplash.jpg","388005","0","NaN","","0","1","0","400","2100","413","2274","","","","","","","","","","","","","","","","","","","","","","","","","","","","","","","","","","","","","","","","","","","","","","","","","","","","","",""
"","iti_localizer","","html-keyboard-response","63","388730","0.0-2.0-2.3-1.3","30","30126","female","null","","","","null","","0","","","388418","0","","","","","","300","2500","312","2687","300","","","","","","","","","","","","","","","","","","","","","","","","","","","","","","","","","","","","","","","","","","","","","","","","","","","","",""
"","localizer","","html-keyboard-response","64","389152","0.0-2.0-2.4-0.4","30","30126","female","NaN","","","","null","NaN","0","","Stimuli/Practice_stims/Localizer/annie-spratt-g9KFpAfQ5bc-unsplash.jpg","388730","0","NaN","","0","1","0","400","2800","422","2999","","","","","","","","","","","","","","","","","","","","","","","","","","","","","","","","","","","","","","","","","","","","","","","","","","","","","",""
"","iti_localizer","","html-keyboard-response","65","389472","0.0-2.0-2.4-1.4","30","30126","female","null","","","","null","","0","","","389152","0","","","","","","300","3200","320","3421","300","","","","","","","","","","","","","","","","","","","","","","","","","","","","","","","","","","","","","","","","","","","","","","","","","","","","",""
"","localizer","","html-keyboard-response","66","389895","0.0-2.0-2.5-0.5","30","30126","female","NaN","","","","null","NaN","0","","Stimuli/Practice_stims/Localizer/annie-spratt-g9KFpAfQ5bc-unsplash.jpg","389472","0","NaN","","0","1","0","400","3500","423","3741","","","","","","","","","","","","","","","","","","","","","","","","","","","","","","","","","","","","","","","","","","","","","","","","","","","","","",""
"","iti_localizer","","html-keyboard-response","67","390235","0.0-2.0-2.5-1.5","30","30126","female","null","","","","null","","0","","","389895","0","","","","","","300","3900","340","4164","300","","","","","","","","","","","","","","","","","","","","","","","","","","","","","","","","","","","","","","","","","","","","","","","","","","","","",""
"","localizer","","html-keyboard-response","68","390670","0.0-2.0-2.6-0.6","30","30126","female","143","","","","68","0","0","","Stimuli/Practice_stims/Localizer/annie-spratt-g9KFpAfQ5bc-unsplash.jpg","390235","0","NaN","","0","0","1","400","4200","435","4504","","","","","","","","","","","","","","","","","","","","","","","","","","","","","","","","","","","","","","","","","","","","","","","","","","","","","",""
"","iti_localizer","","html-keyboard-response","69","390993","0.0-2.0-2.6-1.6","30","30126","female","null","","","","null","","0","","","390670","0","","","","","","300","4600","323","4939","300","","","","","","","","","","","","","","","","","","","","","","","","","","","","","","","","","","","","","","","","","","","","","","","","","","","","",""
"","localizer","","html-keyboard-response","70","391413","0.0-2.0-3.0-0.0","30","30126","female","NaN","","","","null","NaN","1","","Stimuli/Practice_stims/Localizer/becca-tapert-sY5RjMB1KkE-unsplash.jpg","390993","0","NaN","","0","1","0","400","4900","420","5262","","","","","","","","","","","","","","","","","","","","","","","","","","","","","","","","","","","","","","","","","","","","","","","","","","","","","",""
"","iti_localizer","","html-keyboard-response","71","391730","0.0-2.0-3.0-1.0","30","30126","female","null","","","","null","","1","","","391413","0","","","","","","300","5300","317","5682","300","","","","","","","","","","","","","","","","","","","","","","","","","","","","","","","","","","","","","","","","","","","","","","","","","","","","",""
"","localizer","","html-keyboard-response","72","392171","0.0-2.0-3.1-0.1","30","30126","female","NaN","","","","null","NaN","1","","Stimuli/Practice_stims/Localizer/becca-tapert-sY5RjMB1KkE-unsplash.jpg","391730","0","NaN","","0","1","0","400","5600","441","5999","","","","","","","","","","","","","","","","","","","","","","","","","","","","","","","","","","","","","","","","","","","","","","","","","","","","","",""
"","iti_localizer","","html-keyboard-response","73","392498","0.0-2.0-3.1-1.1","30","30126","female","null","","","","null","","1","","","392171","0","","","","","","300","6000","327","6440","300","","","","","","","","","","","","","","","","","","","","","","","","","","","","","","","","","","","","","","","","","","","","","","","","","","","","",""
"","localizer","","html-keyboard-response","74","392919","0.0-2.0-3.2-0.2","30","30126","female","NaN","","","","null","NaN","1","","Stimuli/Practice_stims/Localizer/becca-tapert-sY5RjMB1KkE-unsplash.jpg","392498","0","NaN","","0","1","0","400","6300","421","6767","","","","","","","","","","","","","","","","","","","","","","","","","","","","","","","","","","","","","","","","","","","","","","","","","","","","","",""
"","iti_localizer","","html-keyboard-response","75","393286","0.0-2.0-3.2-1.2","30","30126","female","null","","","","null","","1","","","392919","0","","","","","","300","6700","367","7188","300","","","","","","","","","","","","","","","","","","","","","","","","","","","","","","","","","","","","","","","","","","","","","","","","","","","","",""
"","localizer","","html-keyboard-response","76","393701","0.0-2.0-3.3-0.3","30","30126","female","NaN","","","","null","NaN","1","","Stimuli/Practice_stims/Localizer/becca-tapert-sY5RjMB1KkE-unsplash.jpg","393286","0","NaN","","0","1","0","400","7000","415","7555","","","","","","","","","","","","","","","","","","","","","","","","","","","","","","","","","","","","","","","","","","","","","","","","","","","","","",""
"","iti_localizer","","html-keyboard-response","77","394018","0.0-2.0-3.3-1.3","30","30126","female","null","","","","null","","1","","","393701","0","","","","","","300","7400","317","7970","300","","","","","","","","","","","","","","","","","","","","","","","","","","","","","","","","","","","","","","","","","","","","","","","","","","","","",""
"","localizer","","html-keyboard-response","78","394454","0.0-2.0-3.4-0.4","30","30126","female","NaN","","","","null","NaN","1","","Stimuli/Practice_stims/Localizer/becca-tapert-sY5RjMB1KkE-unsplash.jpg","394018","0","NaN","","0","1","0","400","7700","436","8287","","","","","","","","","","","","","","","","","","","","","","","","","","","","","","","","","","","","","","","","","","","","","","","","","","","","","",""
"","iti_localizer","","html-keyboard-response","79","394782","0.0-2.0-3.4-1.4","30","30126","female","null","","","","null","","1","","","394454","0","","","","","","300","8100","328","8723","300","","","","","","","","","","","","","","","","","","","","","","","","","","","","","","","","","","","","","","","","","","","","","","","","","","","","",""
"","localizer","","html-keyboard-response","80","395200","0.0-2.0-3.5-0.5","30","30126","female","NaN","","","","null","NaN","1","","Stimuli/Practice_stims/Localizer/becca-tapert-sY5RjMB1KkE-unsplash.jpg","394782","0","NaN","","0","1","0","400","8400","418","9051","","","","","","","","","","","","","","","","","","","","","","","","","","","","","","","","","","","","","","","","","","","","","","","","","","","","","",""
"","iti_localizer","","html-keyboard-response","81","395521","0.0-2.0-3.5-1.5","30","30126","female","null","","","","null","","1","","","395200","0","","","","","","300","8800","321","9469","300","","","","","","","","","","","","","","","","","","","","","","","","","","","","","","","","","","","","","","","","","","","","","","","","","","","","",""
"","localizer","","html-keyboard-response","82","395950","0.0-2.0-3.6-0.6","30","30126","female","NaN","","","","null","NaN","1","","Stimuli/Practice_stims/Localizer/becca-tapert-sY5RjMB1KkE-unsplash.jpg","395521","0","NaN","","0","1","0","400","9100","429","9790","","","","","","","","","","","","","","","","","","","","","","","","","","","","","","","","","","","","","","","","","","","","","","","","","","","","","",""
"","iti_localizer","","html-keyboard-response","83","396286","0.0-2.0-3.6-1.6","30","30126","female","null","","","","null","","1","","","395950","0","","","","","","300","9500","336","10219","300","","","","","","","","","","","","","","","","","","","","","","","","","","","","","","","","","","","","","","","","","","","","","","","","","","","","",""
"","localizer","","html-keyboard-response","84","396708","0.0-2.0-3.7-0.7","30","30126","female","NaN","","","","null","NaN","1","","Stimuli/Practice_stims/Localizer/becca-tapert-sY5RjMB1KkE-unsplash.jpg","396286","0","NaN","","0","1","0","400","9800","422","10555","","","","","","","","","","","","","","","","","","","","","","","","","","","","","","","","","","","","","","","","","","","","","","","","","","","","","",""
"","iti_localizer","","html-keyboard-response","85","397035","0.0-2.0-3.7-1.7","30","30126","female","null","","","","null","","1","","","396708","0","","","","","","300","10200","327","10977","300","","","","","","","","","","","","","","","","","","","","","","","","","","","","","","","","","","","","","","","","","","","","","","","","","","","","",""
"","localizer","","html-keyboard-response","86","397452","0.0-2.0-3.8-0.8","30","30126","female","NaN","","","","null","NaN","1","","Stimuli/Practice_stims/Localizer/becca-tapert-sY5RjMB1KkE-unsplash.jpg","397035","0","NaN","","0","1","0","400","10500","417","11304","","","","","","","","","","","","","","","","","","","","","","","","","","","","","","","","","","","","","","","","","","","","","","","","","","","","","",""
"","iti_localizer","","html-keyboard-response","87","397783","0.0-2.0-3.8-1.8","30","30126","female","null","","","","null","","1","","","397452","0","","","","","","300","10900","331","11721","300","","","","","","","","","","","","","","","","","","","","","","","","","","","","","","","","","","","","","","","","","","","","","","","","","","","","",""
"","localizer","","html-keyboard-response","88","398201","0.0-2.0-3.9-0.9","30","30126","female","NaN","","","","null","NaN","1","","Stimuli/Practice_stims/Localizer/becca-tapert-sY5RjMB1KkE-unsplash.jpg","397783","0","NaN","","0","1","0","400","11200","418","12052","","","","","","","","","","","","","","","","","","","","","","","","","","","","","","","","","","","","","","","","","","","","","","","","","","","","","",""
"","iti_localizer","","html-keyboard-response","89","398529","0.0-2.0-3.9-1.9","30","30126","female","null","","","","null","","1","","","398201","0","","","","","","300","11600","328","12470","300","","","","","","","","","","","","","","","","","","","","","","","","","","","","","","","","","","","","","","","","","","","","","","","","","","","","",""
"","localizer","","html-keyboard-response","90","398963","0.0-2.0-3.10-0.10","30","30126","female","270","","","","68","0","1","","Stimuli/Practice_stims/Localizer/becca-tapert-sY5RjMB1KkE-unsplash.jpg","398529","0","NaN","","0","0","1","400","11900","434","12798","","","","","","","","","","","","","","","","","","","","","","","","","","","","","","","","","","","","","","","","","","","","","","","","","","","","","",""
"","iti_localizer","","html-keyboard-response","91","399289","0.0-2.0-3.10-1.10","30","30126","female","null","","","","null","","1","","","398963","0","","","","","","300","12300","326","13232","300","","","","","","","","","","","","","","","","","","","","","","","","","","","","","","","","","","","","","","","","","","","","","","","","","","","","",""
"","localizer","","html-keyboard-response","92","399723","0.0-2.0-4.0-0.0","30","30126","female","NaN","","","","null","NaN","2","","Stimuli/Practice_stims/Localizer/charl-durand-bsfXvI25iNg-unsplash.jpg","399289","0","NaN","","1","1","0","400","12600","434","13558","","","","","","","","","","","","","","","","","","","","","","","","","","","","","","","","","","","","","","","","","","","","","","","","","","","","","",""
"","iti_localizer","","html-keyboard-response","93","400041","0.0-2.0-4.0-1.0","30","30126","female","null","","","","null","","2","","","399723","0","","","","","","300","13000","318","13992","300","","","","","","","","","","","","","","","","","","","","","","","","","","","","","","","","","","","","","","","","","","","","","","","","","","","","",""
"","localizer","","html-keyboard-response","94","400470","0.0-2.0-4.1-0.1","30","30126","female","NaN","","","","null","NaN","2","","Stimuli/Practice_stims/Localizer/charl-durand-bsfXvI25iNg-unsplash.jpg","400041","0","NaN","","1","1","0","400","13300","429","14310","","","","","","","","","","","","","","","","","","","","","","","","","","","","","","","","","","","","","","","","","","","","","","","","","","","","","",""
"","iti_localizer","","html-keyboard-response","95","400786","0.0-2.0-4.1-1.1","30","30126","female","null","","","","null","","2","","","400470","0","","","","","","300","13700","316","14739","300","","","","","","","","","","","","","","","","","","","","","","","","","","","","","","","","","","","","","","","","","","","","","","","","","","","","",""
"","localizer","","html-keyboard-response","96","401200","0.0-2.0-4.2-0.2","30","30126","female","240","","","","75","1","2","","Stimuli/Practice_stims/Localizer/charl-durand-bsfXvI25iNg-unsplash.jpg","400786","0","NaN","","1","0","1","400","14000","414","15055","","","","","","","","","","","","","","","","","","","","","","","","","","","","","","","","","","","","","","","","","","","","","","","","","","","","","",""
"","iti_localizer","","html-keyboard-response","97","401524","0.0-2.0-4.2-1.2","30","30126","female","null","","","","null","","2","","","401200","0","","","","","","300","14400","324","15469","300","","","","","","","","","","","","","","","","","","","","","","","","","","","","","","","","","","","","","","","","","","","","","","","","","","","","",""
"","localizer","","html-keyboard-response","98","401956","0.0-2.0-5.0-0.0","30","30126","female","NaN","","","","null","NaN","3","","Stimuli/Practice_stims/Localizer/nizar-albusaidy-B2r2SWAf5CE-unsplash.jpg","401524","0","NaN","","0","1","0","400","14700","432","15793","","","","","","","","","","","","","","","","","","","","","","","","","","","","","","","","","","","","","","","","","","","","","","","","","","","","","",""
"","iti_localizer","","html-keyboard-response","99","402273","0.0-2.0-5.0-1.0","30","30126","female","null","","","","null","","3","","","401956","0","","","","","","300","15100","317","16225","300","","","","","","","","","","","","","","","","","","","","","","","","","","","","","","","","","","","","","","","","","","","","","","","","","","","","",""
"","localizer","","html-keyboard-response","100","402696","0.0-2.0-5.1-0.1","30","30126","female","NaN","","","","null","NaN","3","","Stimuli/Practice_stims/Localizer/nizar-albusaidy-B2r2SWAf5CE-unsplash.jpg","402273","0","NaN","","0","1","0","400","15400","423","16542","","","","","","","","","","","","","","","","","","","","","","","","","","","","","","","","","","","","","","","","","","","","","","","","","","","","","",""
"","iti_localizer","","html-keyboard-response","101","403040","0.0-2.0-5.1-1.1","30","30126","female","null","","","","null","","3","","","402696","0","","","","","","300","15800","344","16965","300","","","","","","","","","","","","","","","","","","","","","","","","","","","","","","","","","","","","","","","","","","","","","","","","","","","","",""
"","localizer","","html-keyboard-response","102","403473","0.0-2.0-5.2-0.2","30","30126","female","NaN","","","","null","NaN","3","","Stimuli/Practice_stims/Localizer/nizar-albusaidy-B2r2SWAf5CE-unsplash.jpg","403040","0","NaN","","0","1","0","400","16100","433","17309","","","","","","","","","","","","","","","","","","","","","","","","","","","","","","","","","","","","","","","","","","","","","","","","","","","","","",""
"","iti_localizer","","html-keyboard-response","103","403790","0.0-2.0-5.2-1.2","30","30126","female","null","","","","null","","3","","","403473","0","","","","","","300","16500","317","17742","300","","","","","","","","","","","","","","","","","","","","","","","","","","","","","","","","","","","","","","","","","","","","","","","","","","","","",""
"","localizer","","html-keyboard-response","104","404217","0.0-2.0-5.3-0.3","30","30126","female","NaN","","","","null","NaN","3","","Stimuli/Practice_stims/Localizer/nizar-albusaidy-B2r2SWAf5CE-unsplash.jpg","403790","0","NaN","","0","1","0","400","16800","427","18059","","","","","","","","","","","","","","","","","","","","","","","","","","","","","","","","","","","","","","","","","","","","","","","","","","","","","",""
"","iti_localizer","","html-keyboard-response","105","404541","0.0-2.0-5.3-1.3","30","30126","female","null","","","","null","","3","","","404217","0","","","","","","300","17200","324","18486","300","","","","","","","","","","","","","","","","","","","","","","","","","","","","","","","","","","","","","","","","","","","","","","","","","","","","",""
"","localizer","","html-keyboard-response","106","404967","0.0-2.0-5.4-0.4","30","30126","female","NaN","","","","null","NaN","3","","Stimuli/Practice_stims/Localizer/nizar-albusaidy-B2r2SWAf5CE-unsplash.jpg","404541","0","NaN","","0","1","0","400","17500","426","18810","","","","","","","","","","","","","","","","","","","","","","","","","","","","","","","","","","","","","","","","","","","","","","","","","","","","","",""
"","iti_localizer","","html-keyboard-response","107","405297","0.0-2.0-5.4-1.4","30","30126","female","null","","","","null","","3","","","404967","0","","","","","","300","17900","330","19236","300","","","","","","","","","","","","","","","","","","","","","","","","","","","","","","","","","","","","","","","","","","","","","","","","","","","","",""
"","localizer","","html-keyboard-response","108","405750","0.0-2.0-5.5-0.5","30","30126","female","NaN","","","","null","NaN","3","","Stimuli/Practice_stims/Localizer/nizar-albusaidy-B2r2SWAf5CE-unsplash.jpg","405297","0","NaN","","0","1","0","400","18200","453","19566","","","","","","","","","","","","","","","","","","","","","","","","","","","","","","","","","","","","","","","","","","","","","","","","","","","","","",""
"","iti_localizer","","html-keyboard-response","109","406073","0.0-2.0-5.5-1.5","30","30126","female","null","","","","null","","3","","","405750","0","","","","","","300","18600","323","20019","300","","","","","","","","","","","","","","","","","","","","","","","","","","","","","","","","","","","","","","","","","","","","","","","","","","","","",""
"","localizer","","html-keyboard-response","110","406518","0.0-2.0-5.6-0.6","30","30126","female","NaN","","","","null","NaN","3","","Stimuli/Practice_stims/Localizer/nizar-albusaidy-B2r2SWAf5CE-unsplash.jpg","406073","0","NaN","","0","1","0","400","18900","445","20342","","","","","","","","","","","","","","","","","","","","","","","","","","","","","","","","","","","","","","","","","","","","","","","","","","","","","",""
"","iti_localizer","","html-keyboard-response","111","406832","0.0-2.0-5.6-1.6","30","30126","female","null","","","","null","","3","","","406518","0","","","","","","300","19300","314","20787","300","","","","","","","","","","","","","","","","","","","","","","","","","","","","","","","","","","","","","","","","","","","","","","","","","","","","",""
"","localizer","","html-keyboard-response","112","407251","0.0-2.0-5.7-0.7","30","30126","female","156","","","","68","0","3","","Stimuli/Practice_stims/Localizer/nizar-albusaidy-B2r2SWAf5CE-unsplash.jpg","406832","0","NaN","","0","0","1","400","19600","419","21101","","","","","","","","","","","","","","","","","","","","","","","","","","","","","","","","","","","","","","","","","","","","","","","","","","","","","",""
"","iti_localizer","","html-keyboard-response","113","407573","0.0-2.0-5.7-1.7","30","30126","female","null","","","","null","","3","","","407251","0","","","","","","300","20000","322","21520","300","","","","","","","","","","","","","","","","","","","","","","","","","","","","","","","","","","","","","","","","","","","","","","","","","","","","",""
"","localizer","","html-keyboard-response","114","408007","0.0-2.0-6.0-0.0","30","30126","female","NaN","","","","null","NaN","4","","Stimuli/Practice_stims/Localizer/randy-fath-epf1tdtIIkM-unsplash.jpg","407573","0","NaN","","1","1","0","400","20300","434","21842","","","","","","","","","","","","","","","","","","","","","","","","","","","","","","","","","","","","","","","","","","","","","","","","","","","","","",""
"","iti_localizer","","html-keyboard-response","115","408316","0.0-2.0-6.0-1.0","30","30126","female","null","","","","null","","4","","","408007","0","","","","","","300","20700","309","22276","300","","","","","","","","","","","","","","","","","","","","","","","","","","","","","","","","","","","","","","","","","","","","","","","","","","","","",""
"","localizer","","html-keyboard-response","116","408758","0.0-2.0-6.1-0.1","30","30126","female","NaN","","","","null","NaN","4","","Stimuli/Practice_stims/Localizer/randy-fath-epf1tdtIIkM-unsplash.jpg","408316","0","NaN","","1","1","0","400","21000","442","22585","","","","","","","","","","","","","","","","","","","","","","","","","","","","","","","","","","","","","","","","","","","","","","","","","","","","","",""
"","iti_localizer","","html-keyboard-response","117","409089","0.0-2.0-6.1-1.1","30","30126","female","null","","","","null","","4","","","408758","0","","","","","","300","21400","331","23027","300","","","","","","","","","","","","","","","","","","","","","","","","","","","","","","","","","","","","","","","","","","","","","","","","","","","","",""
"","localizer","","html-keyboard-response","118","409560","0.0-2.0-6.2-0.2","30","30126","female","NaN","","","","null","NaN","4","","Stimuli/Practice_stims/Localizer/randy-fath-epf1tdtIIkM-unsplash.jpg","409089","0","NaN","","1","1","0","400","21700","471","23358","","","","","","","","","","","","","","","","","","","","","","","","","","","","","","","","","","","","","","","","","","","","","","","","","","","","","",""
"","iti_localizer","","html-keyboard-response","119","409885","0.0-2.0-6.2-1.2","30","30126","female","null","","","","null","","4","","","409560","0","","","","","","300","22100","325","23829","300","","","","","","","","","","","","","","","","","","","","","","","","","","","","","","","","","","","","","","","","","","","","","","","","","","","","",""
"","localizer","","html-keyboard-response","120","410296","0.0-2.0-6.3-0.3","30","30126","female","NaN","","","","null","NaN","4","","Stimuli/Practice_stims/Localizer/randy-fath-epf1tdtIIkM-unsplash.jpg","409885","0","NaN","","1","1","0","400","22400","411","24154","","","","","","","","","","","","","","","","","","","","","","","","","","","","","","","","","","","","","","","","","","","","","","","","","","","","","",""
"","iti_localizer","","html-keyboard-response","121","410612","0.0-2.0-6.3-1.3","30","30126","female","null","","","","null","","4","","","410296","0","","","","","","300","22800","316","24565","300","","","","","","","","","","","","","","","","","","","","","","","","","","","","","","","","","","","","","","","","","","","","","","","","","","","","",""
"","localizer","","html-keyboard-response","122","411024","0.0-2.0-6.4-0.4","30","30126","female","NaN","","","","null","NaN","4","","Stimuli/Practice_stims/Localizer/randy-fath-epf1tdtIIkM-unsplash.jpg","410612","0","NaN","","1","1","0","400","23100","412","24881","","","","","","","","","","","","","","","","","","","","","","","","","","","","","","","","","","","","","","","","","","","","","","","","","","","","","",""
"","iti_localizer","","html-keyboard-response","123","411367","0.0-2.0-6.4-1.4","30","30126","female","null","","","","null","","4","","","411024","0","","","","","","300","23500","343","25293","300","","","","","","","","","","","","","","","","","","","","","","","","","","","","","","","","","","","","","","","","","","","","","","","","","","","","",""
"","localizer","","html-keyboard-response","124","411786","0.0-2.0-6.5-0.5","30","30126","female","107","","","","75","1","4","","Stimuli/Practice_stims/Localizer/randy-fath-epf1tdtIIkM-unsplash.jpg","411367","0","NaN","","1","0","1","400","23800","419","25636","","","","","","","","","","","","","","","","","","","","","","","","","","","","","","","","","","","","","","","","","","","","","","","","","","","","","",""
"","iti_localizer","","html-keyboard-response","125","412106","0.0-2.0-6.5-1.5","30","30126","female","null","","","","null","","4","","","411786","0","","","","","","300","24200","320","26055","300","","","","","","","","","","","","","","","","","","","","","","","","","","","","","","","","","","","","","","","","","","","","","","","","","","","","",""
"","localizer","","html-keyboard-response","126","412537","0.0-2.0-7.0-0.0","30","30126","female","NaN","","","","null","NaN","5","","Stimuli/Practice_stims/Localizer/yassine-khalfalli-adsQ9d_Cx0c-unsplash.jpg","412106","0","NaN","","0","1","0","400","24500","431","26375","","","","","","","","","","","","","","","","","","","","","","","","","","","","","","","","","","","","","","","","","","","","","","","","","","","","","",""
"","iti_localizer","","html-keyboard-response","127","412857","0.0-2.0-7.0-1.0","30","30126","female","null","","","","null","","5","","","412537","0","","","","","","300","24900","320","26806","300","","","","","","","","","","","","","","","","","","","","","","","","","","","","","","","","","","","","","","","","","","","","","","","","","","","","",""
"","localizer","","html-keyboard-response","128","413288","0.0-2.0-7.1-0.1","30","30126","female","NaN","","","","null","NaN","5","","Stimuli/Practice_stims/Localizer/yassine-khalfalli-adsQ9d_Cx0c-unsplash.jpg","412857","0","NaN","","0","1","0","400","25200","431","27126","","","","","","","","","","","","","","","","","","","","","","","","","","","","","","","","","","","","","","","","","","","","","","","","","","","","","",""
"","iti_localizer","","html-keyboard-response","129","413607","0.0-2.0-7.1-1.1","30","30126","female","null","","","","null","","5","","","413288","0","","","","","","300","25600","319","27557","300","","","","","","","","","","","","","","","","","","","","","","","","","","","","","","","","","","","","","","","","","","","","","","","","","","","","",""
"","localizer","","html-keyboard-response","130","414025","0.0-2.0-7.2-0.2","30","30126","female","NaN","","","","null","NaN","5","","Stimuli/Practice_stims/Localizer/yassine-khalfalli-adsQ9d_Cx0c-unsplash.jpg","413607","0","NaN","","0","1","0","400","25900","418","27876","","","","","","","","","","","","","","","","","","","","","","","","","","","","","","","","","","","","","","","","","","","","","","","","","","","","","",""
"","iti_localizer","","html-keyboard-response","131","414355","0.0-2.0-7.2-1.2","30","30126","female","null","","","","null","","5","","","414025","0","","","","","","300","26300","330","28294","300","","","","","","","","","","","","","","","","","","","","","","","","","","","","","","","","","","","","","","","","","","","","","","","","","","","","",""
"","localizer","","html-keyboard-response","132","414776","0.0-2.0-7.3-0.3","30","30126","female","NaN","","","","null","NaN","5","","Stimuli/Practice_stims/Localizer/yassine-khalfalli-adsQ9d_Cx0c-unsplash.jpg","414355","0","NaN","","0","1","0","400","26600","421","28624","","","","","","","","","","","","","","","","","","","","","","","","","","","","","","","","","","","","","","","","","","","","","","","","","","","","","",""
"","iti_localizer","","html-keyboard-response","133","415099","0.0-2.0-7.3-1.3","30","30126","female","null","","","","null","","5","","","414776","0","","","","","","300","27000","323","29045","300","","","","","","","","","","","","","","","","","","","","","","","","","","","","","","","","","","","","","","","","","","","","","","","","","","","","",""
"","localizer","","html-keyboard-response","134","415519","0.0-2.0-7.4-0.4","30","30126","female","NaN","","","","null","NaN","5","","Stimuli/Practice_stims/Localizer/yassine-khalfalli-adsQ9d_Cx0c-unsplash.jpg","415099","0","NaN","","0","1","0","400","27300","420","29368","","","","","","","","","","","","","","","","","","","","","","","","","","","","","","","","","","","","","","","","","","","","","","","","","","","","","",""
"","iti_localizer","","html-keyboard-response","135","415841","0.0-2.0-7.4-1.4","30","30126","female","null","","","","null","","5","","","415519","0","","","","","","300","27700","322","29788","300","","","","","","","","","","","","","","","","","","","","","","","","","","","","","","","","","","","","","","","","","","","","","","","","","","","","",""
"","localizer","","html-keyboard-response","136","416263","0.0-2.0-7.5-0.5","30","30126","female","NaN","","","","null","NaN","5","","Stimuli/Practice_stims/Localizer/yassine-khalfalli-adsQ9d_Cx0c-unsplash.jpg","415841","0","NaN","","0","1","0","400","28000","422","30110","","","","","","","","","","","","","","","","","","","","","","","","","","","","","","","","","","","","","","","","","","","","","","","","","","","","","",""
"","iti_localizer","","html-keyboard-response","137","416594","0.0-2.0-7.5-1.5","30","30126","female","null","","","","null","","5","","","416263","0","","","","","","300","28400","331","30532","300","","","","","","","","","","","","","","","","","","","","","","","","","","","","","","","","","","","","","","","","","","","","","","","","","","","","",""
"","localizer","","html-keyboard-response","138","417034","0.0-2.0-7.6-0.6","30","30126","female","NaN","","","","null","NaN","5","","Stimuli/Practice_stims/Localizer/yassine-khalfalli-adsQ9d_Cx0c-unsplash.jpg","416594","0","NaN","","0","1","0","400","28700","440","30863","","","","","","","","","","","","","","","","","","","","","","","","","","","","","","","","","","","","","","","","","","","","","","","","","","","","","",""
"","iti_localizer","","html-keyboard-response","139","417357","0.0-2.0-7.6-1.6","30","30126","female","null","","","","null","","5","","","417034","0","","","","","","300","29100","323","31303","300","","","","","","","","","","","","","","","","","","","","","","","","","","","","","","","","","","","","","","","","","","","","","","","","","","","","",""
"","localizer","","html-keyboard-response","140","417788","0.0-2.0-7.7-0.7","30","30126","female","NaN","","","","null","NaN","5","","Stimuli/Practice_stims/Localizer/yassine-khalfalli-adsQ9d_Cx0c-unsplash.jpg","417357","0","NaN","","0","1","0","400","29400","431","31626","","","","","","","","","","","","","","","","","","","","","","","","","","","","","","","","","","","","","","","","","","","","","","","","","","","","","",""
"","iti_localizer","","html-keyboard-response","141","418116","0.0-2.0-7.7-1.7","30","30126","female","null","","","","null","","5","","","417788","0","","","","","","300","29800","328","32057","300","","","","","","","","","","","","","","","","","","","","","","","","","","","","","","","","","","","","","","","","","","","","","","","","","","","","",""
"","localizer","","html-keyboard-response","142","418539","0.0-2.0-7.8-0.8","30","30126","female","NaN","","","","null","NaN","5","","Stimuli/Practice_stims/Localizer/yassine-khalfalli-adsQ9d_Cx0c-unsplash.jpg","418116","0","NaN","","0","1","0","400","30100","423","32385","","","","","","","","","","","","","","","","","","","","","","","","","","","","","","","","","","","","","","","","","","","","","","","","","","","","","",""
"","iti_localizer","","html-keyboard-response","143","418858","0.0-2.0-7.8-1.8","30","30126","female","null","","","","null","","5","","","418539","0","","","","","","300","30500","319","32808","300","","","","","","","","","","","","","","","","","","","","","","","","","","","","","","","","","","","","","","","","","","","","","","","","","","","","",""
"","localizer","","html-keyboard-response","144","419289","0.0-2.0-7.9-0.9","30","30126","female","NaN","","","","null","NaN","5","","Stimuli/Practice_stims/Localizer/yassine-khalfalli-adsQ9d_Cx0c-unsplash.jpg","418858","0","NaN","","0","1","0","400","30800","431","33127","","","","","","","","","","","","","","","","","","","","","","","","","","","","","","","","","","","","","","","","","","","","","","","","","","","","","",""
"","iti_localizer","","html-keyboard-response","145","419606","0.0-2.0-7.9-1.9","30","30126","female","null","","","","null","","5","","","419289","0","","","","","","300","31200","317","33558","300","","","","","","","","","","","","","","","","","","","","","","","","","","","","","","","","","","","","","","","","","","","","","","","","","","","","",""
"","localizer","","html-keyboard-response","146","420031","0.0-2.0-7.10-0.10","30","30126","female","NaN","","","","null","NaN","5","","Stimuli/Practice_stims/Localizer/yassine-khalfalli-adsQ9d_Cx0c-unsplash.jpg","419606","0","NaN","","0","1","0","400","31500","425","33875","","","","","","","","","","","","","","","","","","","","","","","","","","","","","","","","","","","","","","","","","","","","","","","","","","","","","",""
"","iti_localizer","","html-keyboard-response","147","420367","0.0-2.0-7.10-1.10","30","30126","female","null","","","","null","","5","","","420031","0","","","","","","300","31900","336","34300","300","","","","","","","","","","","","","","","","","","","","","","","","","","","","","","","","","","","","","","","","","","","","","","","","","","","","",""
"","localizer","","html-keyboard-response","148","420808","0.0-2.0-7.11-0.11","30","30126","female","NaN","","","","null","NaN","5","","Stimuli/Practice_stims/Localizer/yassine-khalfalli-adsQ9d_Cx0c-unsplash.jpg","420367","0","NaN","","0","1","0","400","32200","441","34636","","","","","","","","","","","","","","","","","","","","","","","","","","","","","","","","","","","","","","","","","","","","","","","","","","","","","",""
"","iti_localizer","","html-keyboard-response","149","421119","0.0-2.0-7.11-1.11","30","30126","female","null","","","","null","","5","","","420808","0","","","","","","300","32600","311","35077","300","","","","","","","","","","","","","","","","","","","","","","","","","","","","","","","","","","","","","","","","","","","","","","","","","","","","",""
"","localizer","","html-keyboard-response","150","421547","0.0-2.0-7.12-0.12","30","30126","female","NaN","","","","null","NaN","5","","Stimuli/Practice_stims/Localizer/yassine-khalfalli-adsQ9d_Cx0c-unsplash.jpg","421119","0","NaN","","0","1","0","400","32900","428","35388","","","","","","","","","","","","","","","","","","","","","","","","","","","","","","","","","","","","","","","","","","","","","","","","","","","","","",""
"","iti_localizer","","html-keyboard-response","151","421859","0.0-2.0-7.12-1.12","30","30126","female","null","","","","null","","5","","","421547","0","","","","","","300","33300","312","35816","300","","","","","","","","","","","","","","","","","","","","","","","","","","","","","","","","","","","","","","","","","","","","","","","","","","","","",""
"","localizer","","html-keyboard-response","152","422290","0.0-2.0-7.13-0.13","30","30126","female","NaN","","","","null","NaN","5","","Stimuli/Practice_stims/Localizer/yassine-khalfalli-adsQ9d_Cx0c-unsplash.jpg","421859","0","NaN","","0","1","0","400","33600","431","36128","","","","","","","","","","","","","","","","","","","","","","","","","","","","","","","","","","","","","","","","","","","","","","","","","","","","","",""
"","iti_localizer","","html-keyboard-response","153","422608","0.0-2.0-7.13-1.13","30","30126","female","null","","","","null","","5","","","422290","0","","","","","","300","34000","318","36559","300","","","","","","","","","","","","","","","","","","","","","","","","","","","","","","","","","","","","","","","","","","","","","","","","","","","","",""
"","localizer","","html-keyboard-response","154","423045","0.0-2.0-7.14-0.14","30","30126","female","NaN","","","","null","NaN","5","","Stimuli/Practice_stims/Localizer/yassine-khalfalli-adsQ9d_Cx0c-unsplash.jpg","422608","0","NaN","","0","1","0","400","34300","437","36877","","","","","","","","","","","","","","","","","","","","","","","","","","","","","","","","","","","","","","","","","","","","","","","","","","","","","",""
"","iti_localizer","","html-keyboard-response","155","423367","0.0-2.0-7.14-1.14","30","30126","female","null","","","","null","","5","","","423045","0","","","","","","300","34700","322","37314","300","","","","","","","","","","","","","","","","","","","","","","","","","","","","","","","","","","","","","","","","","","","","","","","","","","","","",""
"","localizer","","html-keyboard-response","156","423802","0.0-2.0-7.15-0.15","30","30126","female","254","","","","68","0","5","","Stimuli/Practice_stims/Localizer/yassine-khalfalli-adsQ9d_Cx0c-unsplash.jpg","423367","0","NaN","","0","0","1","400","35000","435","37636","","","","","","","","","","","","","","","","","","","","","","","","","","","","","","","","","","","","","","","","","","","","","","","","","","","","","",""
"","iti_localizer","","html-keyboard-response","157","424118","0.0-2.0-7.15-1.15","30","30126","female","null","","","","null","","5","","","423802","0","","","","","","300","35400","316","38071","300","","","","","","","","","","","","","","","","","","","","","","","","","","","","","","","","","","","","","","","","","","","","","","","","","","","","",""
"","practice_over","","html-keyboard-response","158","430644","0.0-2.0-7.15-2.15-0.15","30","30126","female","6512","","","","68","","","","","","","","","","","","","","","","","","","","","","","","","","","","","","","","","","","","","","","","","","","","","","","","","","","","","","","","","","","","","","","","","","","","",""
"","start_run","","html-keyboard-response","159","434035","0.0-2.0-7.15-2.15-1.15","30","30126","female","3372","","","","84","","","","","","","","","","","","","","","","","","","","","","","","","","","","","","","","","","","","","","","","","","","","","","","","","","","","","","","","","","","","","","","","","","","","",""
"","localizer","","html-keyboard-response","160","434453","0.0-2.0-8.0-0.0","30","30126","female","NaN","","","","null","NaN","6","","Stimuli/Experimental_stims/localizer/objects/jonny-caspari-wsvCC6UyKjs-unsplash.jpg","434035","1","objects","","0","1","0","400","0","418","0","","","","","","","","","","","","","","","","","","","","","","","","","","","","","","","","","","","","","","","","","","","","","","","","","","","","","",""
"","iti_localizer","","html-keyboard-response","161","434784","0.0-2.0-8.0-1.0","30","30126","female","null","","","","null","","6","","","434453","1","","","","","","300","400","331","418","300","","","","","","","","","","","","","","","","","","","","","","","","","","","","","","","","","","","","","","","","","","","","","","","","","","","","",""
"","localizer","","html-keyboard-response","162","435198","0.0-2.0-9.0-0.0","30","30126","female","NaN","","","","null","NaN","7","","Stimuli/Experimental_stims/localizer/objects/charlesdeluvio-RDjZh9dqlP4-unsplash.jpg","434784","1","objects","","0","1","0","400","700","414","749","","","","","","","","","","","","","","","","","","","","","","","","","","","","","","","","","","","","","","","","","","","","","","","","","","","","","",""
"","iti_localizer","","html-keyboard-response","163","435519","0.0-2.0-9.0-1.0","30","30126","female","null","","","","null","","7","","","435198","1","","","","","","300","1100","321","1163","300","","","","","","","","","","","","","","","","","","","","","","","","","","","","","","","","","","","","","","","","","","","","","","","","","","","","",""
"","localizer","","html-keyboard-response","164","435967","0.0-2.0-10.0-0.0","30","30126","female","NaN","","","","null","NaN","8","","Stimuli/Experimental_stims/localizer/objects/adriano-pucciarelli-Jl3S1yM8gi8-unsplash.jpg","435519","1","objects","","0","1","0","400","1400","448","1484","","","","","","","","","","","","","","","","","","","","","","","","","","","","","","","","","","","","","","","","","","","","","","","","","","","","","",""
"","iti_localizer","","html-keyboard-response","165","436288","0.0-2.0-10.0-1.0","30","30126","female","null","","","","null","","8","","","435967","1","","","","","","300","1800","321","1932","300","","","","","","","","","","","","","","","","","","","","","","","","","","","","","","","","","","","","","","","","","","","","","","","","","","","","",""
"","localizer","","html-keyboard-response","166","436717","0.0-2.0-11.0-0.0","30","30126","female","NaN","","","","null","NaN","9","","Stimuli/Experimental_stims/localizer/objects/mockup-graphics-Pj2PY-E-LfM-unsplash.jpg","436288","1","objects","","0","1","0","400","2100","429","2253","","","","","","","","","","","","","","","","","","","","","","","","","","","","","","","","","","","","","","","","","","","","","","","","","","","","","",""
"","iti_localizer","","html-keyboard-response","167","437044","0.0-2.0-11.0-1.0","30","30126","female","null","","","","null","","9","","","436717","1","","","","","","300","2500","327","2682","300","","","","","","","","","","","","","","","","","","","","","","","","","","","","","","","","","","","","","","","","","","","","","","","","","","","","",""
"","localizer","","html-keyboard-response","168","437471","0.0-2.0-12.0-0.0","30","30126","female","NaN","","","","null","NaN","10","","Stimuli/Experimental_stims/localizer/objects/chris-briggs-x9TCnxNBofE-unsplash.jpg","437044","1","objects","","0","1","0","400","2800","427","3009","","","","","","","","","","","","","","","","","","","","","","","","","","","","","","","","","","","","","","","","","","","","","","","","","","","","","",""
"","iti_localizer","","html-keyboard-response","169","437804","0.0-2.0-12.0-1.0","30","30126","female","null","","","","null","","10","","","437471","1","","","","","","300","3200","333","3436","300","","","","","","","","","","","","","","","","","","","","","","","","","","","","","","","","","","","","","","","","","","","","","","","","","","","","",""
"","localizer","","html-keyboard-response","170","438250","0.0-2.0-13.0-0.0","30","30126","female","NaN","","","","null","NaN","11","","Stimuli/Experimental_stims/localizer/objects/ignat-dolomanov-kFBDVnmskPA-unsplash.jpg","437804","1","objects","","1","1","0","400","3500","446","3769","","","","","","","","","","","","","","","","","","","","","","","","","","","","","","","","","","","","","","","","","","","","","","","","","","","","","",""
"","iti_localizer","","html-keyboard-response","171","438564","0.0-2.0-13.0-1.0","30","30126","female","null","","","","null","","11","","","438250","1","","","","","","300","3900","314","4215","300","","","","","","","","","","","","","","","","","","","","","","","","","","","","","","","","","","","","","","","","","","","","","","","","","","","","",""
"","localizer","","html-keyboard-response","172","438980","0.0-2.0-14.0-0.0","30","30126","female","NaN","","","","null","NaN","12","","Stimuli/Experimental_stims/localizer/objects/adriano-pucciarelli-BE7yaZnZX6o-unsplash.jpg","438564","1","objects","","0","1","0","400","4200","416","4529","","","","","","","","","","","","","","","","","","","","","","","","","","","","","","","","","","","","","","","","","","","","","","","","","","","","","",""
"","iti_localizer","","html-keyboard-response","173","439303","0.0-2.0-14.0-1.0","30","30126","female","null","","","","null","","12","","","438980","1","","","","","","300","4600","323","4945","300","","","","","","","","","","","","","","","","","","","","","","","","","","","","","","","","","","","","","","","","","","","","","","","","","","","","",""
"","localizer","","html-keyboard-response","174","439728","0.0-2.0-15.0-0.0","30","30126","female","NaN","","","","null","NaN","13","","Stimuli/Experimental_stims/localizer/objects/eugene-chystiakov-3neSwyntbQ8-unsplash.jpg","439303","1","objects","","0","1","0","400","4900","425","5268","","","","","","","","","","","","","","","","","","","","","","","","","","","","","","","","","","","","","","","","","","","","","","","","","","","","","",""
"","iti_localizer","","html-keyboard-response","175","440064","0.0-2.0-15.0-1.0","30","30126","female","null","","","","null","","13","","","439728","1","","","","","","300","5300","336","5693","300","","","","","","","","","","","","","","","","","","","","","","","","","","","","","","","","","","","","","","","","","","","","","","","","","","","","",""
"","localizer","","html-keyboard-response","176","440493","0.0-2.0-16.0-0.0","30","30126","female","224","","","","68","0","14","","Stimuli/Experimental_stims/localizer/objects/girl-with-red-hat-Xxg-r574pLE-unsplash.jpg","440064","1","objects","","0","0","1","400","5600","429","6029","","","","","","","","","","","","","","","","","","","","","","","","","","","","","","","","","","","","","","","","","","","","","","","","","","","","","",""
"","iti_localizer","","html-keyboard-response","177","440831","0.0-2.0-16.0-1.0","30","30126","female","null","","","","null","","14","","","440493","1","","","","","","300","6000","338","6458","300","","","","","","","","","","","","","","","","","","","","","","","","","","","","","","","","","","","","","","","","","","","","","","","","","","","","",""
"","localizer","","html-keyboard-response","178","441273","0.0-2.0-17.0-0.0","30","30126","female","220","","","","68","0","15","","Stimuli/Experimental_stims/localizer/objects/hipster-mum-XookgCxFw6Q-unsplash.jpg","440831","1","objects","","0","0","1","400","6300","442","6796","","","","","","","","","","","","","","","","","","","","","","","","","","","","","","","","","","","","","","","","","","","","","","","","","","","","","",""
"","iti_localizer","","html-keyboard-response","179","441597","0.0-2.0-17.0-1.0","30","30126","female","null","","","","null","","15","","","441273","1","","","","","","300","6700","324","7238","300","","","","","","","","","","","","","","","","","","","","","","","","","","","","","","","","","","","","","","","","","","","","","","","","","","","","",""
"","localizer","","html-keyboard-response","180","442040","0.0-2.0-18.0-0.0","30","30126","female","139","","","","68","0","16","","Stimuli/Experimental_stims/localizer/objects/quino-al-8gWEAAXJjtI-unsplash.jpg","441597","1","objects","","0","0","1","400","7000","443","7562","","","","","","","","","","","","","","","","","","","","","","","","","","","","","","","","","","","","","","","","","","","","","","","","","","","","","",""
"","iti_localizer","","html-keyboard-response","181","442369","0.0-2.0-18.0-1.0","30","30126","female","null","","","","null","","16","","","442040","1","","","","","","300","7400","329","8005","300","","","","","","","","","","","","","","","","","","","","","","","","","","","","","","","","","","","","","","","","","","","","","","","","","","","","",""
"","localizer","","html-keyboard-response","182","442786","0.0-2.0-19.0-0.0","30","30126","female","338","","","","68","0","17","","Stimuli/Experimental_stims/localizer/objects/florian-klauer-mk7D-4UCfmg-unsplash.jpg","442369","1","objects","","0","0","1","400","7700","417","8334","","","","","","","","","","","","","","","","","","","","","","","","","","","","","","","","","","","","","","","","","","","","","","","","","","","","","",""
"","iti_localizer","","html-keyboard-response","183","443101","0.0-2.0-19.0-1.0","30","30126","female","null","","","","null","","17","","","442786","1","","","","","","300","8100","315","8751","300","","","","","","","","","","","","","","","","","","","","","","","","","","","","","","","","","","","","","","","","","","","","","","","","","","","","",""
"","localizer","","html-keyboard-response","184","443535","0.0-2.0-20.0-0.0","30","30126","female","350","","","","68","0","18","","Stimuli/Experimental_stims/localizer/objects/andrew-petrov-TVJqDat4MAw-unsplash.jpg","443101","1","objects","","0","0","1","400","8400","434","9066","","","","","","","","","","","","","","","","","","","","","","","","","","","","","","","","","","","","","","","","","","","","","","","","","","","","","",""
"","iti_localizer","","html-keyboard-response","185","443888","0.0-2.0-20.0-1.0","30","30126","female","null","","","","null","","18","","","443535","1","","","","","","300","8800","353","9500","300","","","","","","","","","","","","","","","","","","","","","","","","","","","","","","","","","","","","","","","","","","","","","","","","","","","","",""
"","localizer","","html-keyboard-response","186","444320","0.0-2.0-21.0-0.0","30","30126","female","254","","","","68","0","19","","Stimuli/Experimental_stims/localizer/objects/carlos-felipe-ramirez-mesa-HW7bfB3ERSQ-unsplash.jpg","443888","1","objects","","0","0","1","400","9100","432","9853","","","","","","","","","","","","","","","","","","","","","","","","","","","","","","","","","","","","","","","","","","","","","","","","","","","","","",""
"","iti_localizer","","html-keyboard-response","187","444640","0.0-2.0-21.0-1.0","30","30126","female","null","","","","null","","19","","","444320","1","","","","","","300","9500","320","10285","300","","","","","","","","","","","","","","","","","","","","","","","","","","","","","","","","","","","","","","","","","","","","","","","","","","","","",""
"","localizer","","html-keyboard-response","188","445078","0.0-2.0-22.0-0.0","30","30126","female","151","","","","68","0","20","","Stimuli/Experimental_stims/localizer/objects/yoann-siloine-_T4w3JDm6ug-unsplash.jpg","444640","1","objects","","1","0","0","400","9800","438","10605","","","","","","","","","","","","","","","","","","","","","","","","","","","","","","","","","","","","","","","","","","","","","","","","","","","","","",""
"","iti_localizer","","html-keyboard-response","189","445429","0.0-2.0-22.0-1.0","30","30126","female","null","","","","null","","20","","","445078","1","","","","","","300","10200","351","11043","300","","","","","","","","","","","","","","","","","","","","","","","","","","","","","","","","","","","","","","","","","","","","","","","","","","","","",""
"","localizer","","html-keyboard-response","190","445857","0.0-2.0-23.0-0.0","30","30126","female","260","","","","75","1","21","","Stimuli/Experimental_stims/localizer/objects/ales-krivec-ZMZHcvIVgbg-unsplash.jpg","445429","1","objects","","0","0","0","400","10500","428","11394","","","","","","","","","","","","","","","","","","","","","","","","","","","","","","","","","","","","","","","","","","","","","","","","","","","","","",""
"","iti_localizer","","html-keyboard-response","191","446220","0.0-2.0-23.0-1.0","30","30126","female","null","","","","null","","21","","","445857","1","","","","","","300","10900","363","11822","300","","","","","","","","","","","","","","","","","","","","","","","","","","","","","","","","","","","","","","","","","","","","","","","","","","","","",""
"","localizer","","html-keyboard-response","192","446635","0.0-2.0-24.0-0.0","30","30126","female","170","","","","68","0","22","","Stimuli/Experimental_stims/localizer/objects/designecologist-hvgd0ygXuQQ-unsplash.jpg","446220","1","objects","","0","0","1","400","11200","415","12185","","","","","","","","","","","","","","","","","","","","","","","","","","","","","","","","","","","","","","","","","","","","","","","","","","","","","",""
"","iti_localizer","","html-keyboard-response","193","446965","0.0-2.0-24.0-1.0","30","30126","female","null","","","","null","","22","","","446635","1","","","","","","300","11600","330","12600","300","","","","","","","","","","","","","","","","","","","","","","","","","","","","","","","","","","","","","","","","","","","","","","","","","","","","",""
"","localizer","","html-keyboard-response","194","447395","0.0-2.0-25.0-0.0","30","30126","female","118","","","","68","0","23","","Stimuli/Experimental_stims/localizer/objects/dario-mendez-hnJ2VNZzbns-unsplash.jpg","446965","1","objects","","0","0","1","400","11900","430","12930","","","","","","","","","","","","","","","","","","","","","","","","","","","","","","","","","","","","","","","","","","","","","","","","","","","","","",""
"","iti_localizer","","html-keyboard-response","195","447712","0.0-2.0-25.0-1.0","30","30126","female","null","","","","null","","23","","","447395","1","","","","","","300","12300","317","13360","300","","","","","","","","","","","","","","","","","","","","","","","","","","","","","","","","","","","","","","","","","","","","","","","","","","","","",""
"","localizer","","html-keyboard-response","196","448130","0.0-2.0-26.0-0.0","30","30126","female","153","","","","68","0","24","","Stimuli/Experimental_stims/localizer/objects/muhammad-toqeer-NRJ9ipvz2iE-unsplash.jpg","447712","1","objects","","0","0","1","400","12600","418","13677","","","","","","","","","","","","","","","","","","","","","","","","","","","","","","","","","","","","","","","","","","","","","","","","","","","","","",""
"","iti_localizer","","html-keyboard-response","197","448446","0.0-2.0-26.0-1.0","30","30126","female","null","","","","null","","24","","","448130","1","","","","","","300","13000","316","14095","300","","","","","","","","","","","","","","","","","","","","","","","","","","","","","","","","","","","","","","","","","","","","","","","","","","","","",""
"","localizer","","html-keyboard-response","198","448878","0.0-2.0-27.0-0.0","30","30126","female","209","","","","68","0","25","","Stimuli/Experimental_stims/localizer/objects/markus-spiske-ANrVtttbNss-unsplash.jpg","448446","1","objects","","0","0","1","400","13300","432","14411","","","","","","","","","","","","","","","","","","","","","","","","","","","","","","","","","","","","","","","","","","","","","","","","","","","","","",""
"","iti_localizer","","html-keyboard-response","199","462905","0.0-2.0-27.0-1.0","30","30126","female","null","","","","null","","25","","","448878","1","","","","","","14000","13700","14027","14843","14000","","","","","","","","","","","","","","","","","","","","","","","","","","","","","","","","","","","","","","","","","","","","","","","","","","","","",""
"","localizer","","html-keyboard-response","200","463324","0.0-2.0-28.0-0.0","30","30126","female","NaN","","","","null","NaN","26","","Stimuli/Experimental_stims/localizer/body_parts/jan-romero-DL4DDQb8yjc-unsplash.jpg","462905","1","body_parts","","0","1","0","400","27700","419","28870","","","","","","","","","","","","","","","","","","","","","","","","","","","","","","","","","","","","","","","","","","","","","","","","","","","","","",""
"","iti_localizer","","html-keyboard-response","201","463650","0.0-2.0-28.0-1.0","30","30126","female","null","","","","null","","26","","","463324","1","","","","","","300","28100","326","29289","300","","","","","","","","","","","","","","","","","","","","","","","","","","","","","","","","","","","","","","","","","","","","","","","","","","","","",""
"","localizer","","html-keyboard-response","202","464074","0.0-2.0-29.0-0.0","30","30126","female","NaN","","","","null","NaN","27","","Stimuli/Experimental_stims/localizer/body_parts/juja-han-Z8-6EI2tYtw-unsplash.jpg","463650","1","body_parts","","0","1","0","400","28400","424","29615","","","","","","","","","","","","","","","","","","","","","","","","","","","","","","","","","","","","","","","","","","","","","","","","","","","","","",""
"","iti_localizer","","html-keyboard-response","203","464394","0.0-2.0-29.0-1.0","30","30126","female","null","","","","null","","27","","","464074","1","","","","","","300","28800","320","30039","300","","","","","","","","","","","","","","","","","","","","","","","","","","","","","","","","","","","","","","","","","","","","","","","","","","","","",""
"","localizer","","html-keyboard-response","204","464816","0.0-2.0-30.0-0.0","30","30126","female","NaN","","","","null","NaN","28","","Stimuli/Experimental_stims/localizer/body_parts/kai-wenzel-zYDJOxjaZrQ-unsplash.jpg","464394","1","body_parts","","1","1","0","400","29100","422","30359","","","","","","","","","","","","","","","","","","","","","","","","","","","","","","","","","","","","","","","","","","","","","","","","","","","","","",""
"","iti_localizer","","html-keyboard-response","205","465134","0.0-2.0-30.0-1.0","30","30126","female","null","","","","null","","28","","","464816","1","","","","","","300","29500","318","30781","300","","","","","","","","","","","","","","","","","","","","","","","","","","","","","","","","","","","","","","","","","","","","","","","","","","","","",""
"","localizer","","html-keyboard-response","206","465555","0.0-2.0-31.0-0.0","30","30126","female","NaN","","","","null","NaN","29","","Stimuli/Experimental_stims/localizer/body_parts/igordoon-primus-CdyHqfrbGIs-unsplash.jpg","465134","1","body_parts","","0","1","0","400","29800","421","31099","","","","","","","","","","","","","","","","","","","","","","","","","","","","","","","","","","","","","","","","","","","","","","","","","","","","","",""
"","iti_localizer","","html-keyboard-response","207","465886","0.0-2.0-31.0-1.0","30","30126","female","null","","","","null","","29","","","465555","1","","","","","","300","30200","331","31520","300","","","","","","","","","","","","","","","","","","","","","","","","","","","","","","","","","","","","","","","","","","","","","","","","","","","","",""
"","localizer","","html-keyboard-response","208","466304","0.0-2.0-32.0-0.0","30","30126","female","NaN","","","","null","NaN","30","","Stimuli/Experimental_stims/localizer/body_parts/nick-page-WTNmgJtwzGI-unsplash.jpg","465886","1","body_parts","","0","1","0","400","30500","418","31851","","","","","","","","","","","","","","","","","","","","","","","","","","","","","","","","","","","","","","","","","","","","","","","","","","","","","",""
"","iti_localizer","","html-keyboard-response","209","466628","0.0-2.0-32.0-1.0","30","30126","female","null","","","","null","","30","","","466304","1","","","","","","300","30900","324","32269","300","","","","","","","","","","","","","","","","","","","","","","","","","","","","","","","","","","","","","","","","","","","","","","","","","","","","",""
"","localizer","","html-keyboard-response","210","467053","0.0-2.0-33.0-0.0","30","30126","female","NaN","","","","null","NaN","31","","Stimuli/Experimental_stims/localizer/body_parts/callum-skelton-3KLMq7y46nA-unsplash.jpg","466628","1","body_parts","","0","1","0","400","31200","425","32593","","","","","","","","","","","","","","","","","","","","","","","","","","","","","","","","","","","","","","","","","","","","","","","","","","","","","",""
"","iti_localizer","","html-keyboard-response","211","467379","0.0-2.0-33.0-1.0","30","30126","female","null","","","","null","","31","","","467053","1","","","","","","300","31600","326","33018","300","","","","","","","","","","","","","","","","","","","","","","","","","","","","","","","","","","","","","","","","","","","","","","","","","","","","",""
"","localizer","","html-keyboard-response","212","467801","0.0-2.0-34.0-0.0","30","30126","female","315","","","","68","0","32","","Stimuli/Experimental_stims/localizer/body_parts/anelya-okapova-V69kmOyZ3SU-unsplash.jpg","467379","1","body_parts","","0","0","1","400","31900","422","33344","","","","","","","","","","","","","","","","","","","","","","","","","","","","","","","","","","","","","","","","","","","","","","","","","","","","","",""
"","iti_localizer","","html-keyboard-response","213","468118","0.0-2.0-34.0-1.0","30","30126","female","null","","","","null","","32","","","467801","1","","","","","","300","32300","317","33766","300","","","","","","","","","","","","","","","","","","","","","","","","","","","","","","","","","","","","","","","","","","","","","","","","","","","","",""
"","localizer","","html-keyboard-response","214","468543","0.0-2.0-35.0-0.0","30","30126","female","359","","","","68","0","33","","Stimuli/Experimental_stims/localizer/body_parts/jeremy-yap-TfJEi17kA0w-unsplash.jpg","468118","1","body_parts","","0","0","1","400","32600","425","34083","","","","","","","","","","","","","","","","","","","","","","","","","","","","","","","","","","","","","","","","","","","","","","","","","","","","","",""
"","iti_localizer","","html-keyboard-response","215","468867","0.0-2.0-35.0-1.0","30","30126","female","null","","","","null","","33","","","468543","1","","","","","","300","33000","324","34508","300","","","","","","","","","","","","","","","","","","","","","","","","","","","","","","","","","","","","","","","","","","","","","","","","","","","","",""
"","localizer","","html-keyboard-response","216","469317","0.0-2.0-36.0-0.0","30","30126","female","422","","","","68","0","34","","Stimuli/Experimental_stims/localizer/body_parts/debby-hudson--B_757qSA4k-unsplash.jpg","468867","1","body_parts","","0","0","1","400","33300","450","34832","","","","","","","","","","","","","","","","","","","","","","","","","","","","","","","","","","","","","","","","","","","","","","","","","","","","","",""
"","iti_localizer","","html-keyboard-response","217","469639","0.0-2.0-36.0-1.0","30","30126","female","null","","","","null","","34","","","469317","1","","","","","","300","33700","322","35282","300","","","","","","","","","","","","","","","","","","","","","","","","","","","","","","","","","","","","","","","","","","","","","","","","","","","","",""
"","localizer","","html-keyboard-response","218","470057","0.0-2.0-37.0-0.0","30","30126","female","398","","","","68","0","35","","Stimuli/Experimental_stims/localizer/body_parts/danie-franco-jyyNiSEcCl4-unsplash.jpg","469639","1","body_parts","","0","0","1","400","34000","418","35604","","","","","","","","","","","","","","","","","","","","","","","","","","","","","","","","","","","","","","","","","","","","","","","","","","","","","",""
"","iti_localizer","","html-keyboard-response","219","470381","0.0-2.0-37.0-1.0","30","30126","female","null","","","","null","","35","","","470057","1","","","","","","300","34400","324","36022","300","","","","","","","","","","","","","","","","","","","","","","","","","","","","","","","","","","","","","","","","","","","","","","","","","","","","",""
"","localizer","","html-keyboard-response","220","470820","0.0-2.0-38.0-0.0","30","30126","female","197","","","","68","0","36","","Stimuli/Experimental_stims/localizer/body_parts/toan-nguyen-VIeLuUFzesg-unsplash.jpg","470381","1","body_parts","","0","0","1","400","34700","439","36346","","","","","","","","","","","","","","","","","","","","","","","","","","","","","","","","","","","","","","","","","","","","","","","","","","","","","",""
"","iti_localizer","","html-keyboard-response","221","471144","0.0-2.0-38.0-1.0","30","30126","female","null","","","","null","","36","","","470820","1","","","","","","300","35100","324","36785","300","","","","","","","","","","","","","","","","","","","","","","","","","","","","","","","","","","","","","","","","","","","","","","","","","","","","",""
"","localizer","","html-keyboard-response","222","471572","0.0-2.0-39.0-0.0","30","30126","female","82","","","","68","0","37","","Stimuli/Experimental_stims/localizer/body_parts/femme-spirit-RGYBDUHYbyM-unsplash.jpg","471144","1","body_parts","","0","0","1","400","35400","428","37109","","","","","","","","","","","","","","","","","","","","","","","","","","","","","","","","","","","","","","","","","","","","","","","","","","","","","",""
"","iti_localizer","","html-keyboard-response","223","471898","0.0-2.0-39.0-1.0","30","30126","female","null","","","","null","","37","","","471572","1","","","","","","300","35800","326","37537","300","","","","","","","","","","","","","","","","","","","","","","","","","","","","","","","","","","","","","","","","","","","","","","","","","","","","",""
"","localizer","","html-keyboard-response","224","472311","0.0-2.0-40.0-0.0","30","30126","female","3","","","","68","0","38","","Stimuli/Experimental_stims/localizer/body_parts/sincerely-media-QyzlAZjm0r0-unsplash.jpg","471898","1","body_parts","","0","0","1","400","36100","413","37863","","","","","","","","","","","","","","","","","","","","","","","","","","","","","","","","","","","","","","","","","","","","","","","","","","","","","",""
"","iti_localizer","","html-keyboard-response","225","472640","0.0-2.0-40.0-1.0","30","30126","female","null","","","","null","","38","","","472311","1","","","","","","300","36500","329","38276","300","","","","","","","","","","","","","","","","","","","","","","","","","","","","","","","","","","","","","","","","","","","","","","","","","","","","",""
"","localizer","","html-keyboard-response","226","473055","0.0-2.0-41.0-0.0","30","30126","female","88","","","","68","0","39","","Stimuli/Experimental_stims/localizer/body_parts/betzy-arosemena-YHdgnygtVCQ-unsplash.jpg","472640","1","body_parts","","0","0","1","400","36800","415","38605","","","","","","","","","","","","","","","","","","","","","","","","","","","","","","","","","","","","","","","","","","","","","","","","","","","","","",""
"","iti_localizer","","html-keyboard-response","227","473376","0.0-2.0-41.0-1.0","30","30126","female","null","","","","null","","39","","","473055","1","","","","","","300","37200","321","39020","300","","","","","","","","","","","","","","","","","","","","","","","","","","","","","","","","","","","","","","","","","","","","","","","","","","","","",""
"","localizer","","html-keyboard-response","228","473805","0.0-2.0-42.0-0.0","30","30126","female","107","","","","68","0","40","","Stimuli/Experimental_stims/localizer/body_parts/nihal-karkala-LlOfbQD-IJ0-unsplash.jpg","473376","1","body_parts","","0","0","1","400","37500","429","39341","","","","","","","","","","","","","","","","","","","","","","","","","","","","","","","","","","","","","","","","","","","","","","","","","","","","","",""
"","iti_localizer","","html-keyboard-response","229","474125","0.0-2.0-42.0-1.0","30","30126","female","null","","","","null","","40","","","473805","1","","","","","","300","37900","320","39770","300","","","","","","","","","","","","","","","","","","","","","","","","","","","","","","","","","","","","","","","","","","","","","","","","","","","","",""
"","localizer","","html-keyboard-response","230","474548","0.0-2.0-43.0-0.0","30","30126","female","102","","","","68","0","41","","Stimuli/Experimental_stims/localizer/body_parts/nattalia-nunez-MB9sdDfZMSg-unsplash.jpg","474125","1","body_parts","","0","0","1","400","38200","423","40090","","","","","","","","","","","","","","","","","","","","","","","","","","","","","","","","","","","","","","","","","","","","","","","","","","","","","",""
"","iti_localizer","","html-keyboard-response","231","474862","0.0-2.0-43.0-1.0","30","30126","female","null","","","","null","","41","","","474548","1","","","","","","300","38600","314","40513","300","","","","","","","","","","","","","","","","","","","","","","","","","","","","","","","","","","","","","","","","","","","","","","","","","","","","",""
"","localizer","","html-keyboard-response","232","475286","0.0-2.0-44.0-0.0","30","30126","female","312","","","","68","0","42","","Stimuli/Experimental_stims/localizer/body_parts/xavier-foucrier-dLZUNHsT8vo-unsplash.jpg","474862","1","body_parts","","0","0","1","400","38900","424","40827","","","","","","","","","","","","","","","","","","","","","","","","","","","","","","","","","","","","","","","","","","","","","","","","","","","","","",""
"","iti_localizer","","html-keyboard-response","233","475611","0.0-2.0-44.0-1.0","30","30126","female","null","","","","null","","42","","","475286","1","","","","","","300","39300","325","41251","300","","","","","","","","","","","","","","","","","","","","","","","","","","","","","","","","","","","","","","","","","","","","","","","","","","","","",""
"","localizer","","html-keyboard-response","234","476028","0.0-2.0-45.0-0.0","30","30126","female","120","","","","68","0","43","","Stimuli/Experimental_stims/localizer/body_parts/i-am_nah--S4OsO0c6Ts-unsplash.jpg","475611","1","body_parts","","0","0","1","400","39600","417","41576","","","","","","","","","","","","","","","","","","","","","","","","","","","","","","","","","","","","","","","","","","","","","","","","","","","","","",""
"","iti_localizer","","html-keyboard-response","235","476354","0.0-2.0-45.0-1.0","30","30126","female","null","","","","null","","43","","","476028","1","","","","","","300","40000","326","41993","300","","","","","","","","","","","","","","","","","","","","","","","","","","","","","","","","","","","","","","","","","","","","","","","","","","","","",""
"","localizer","","html-keyboard-response","236","476769","0.0-2.0-46.0-0.0","30","30126","female","202","","","","68","0","44","","Stimuli/Experimental_stims/localizer/body_parts/megan-menegay-UojxG_BJxnI-unsplash.jpg","476354","1","body_parts","","0","0","1","400","40300","415","42319","","","","","","","","","","","","","","","","","","","","","","","","","","","","","","","","","","","","","","","","","","","","","","","","","","","","","",""
"","iti_localizer","","html-keyboard-response","237","477103","0.0-2.0-46.0-1.0","30","30126","female","null","","","","null","","44","","","476769","1","","","","","","300","40700","334","42734","300","","","","","","","","","","","","","","","","","","","","","","","","","","","","","","","","","","","","","","","","","","","","","","","","","","","","",""
"","localizer","","html-keyboard-response","238","477543","0.0-2.0-47.0-0.0","30","30126","female","221","","","","68","0","45","","Stimuli/Experimental_stims/localizer/body_parts/priscilla-du-preez-e6fcNpur53A-unsplash.jpg","477103","1","body_parts","","1","0","0","400","41000","440","43068","","","","","","","","","","","","","","","","","","","","","","","","","","","","","","","","","","","","","","","","","","","","","","","","","","","","","",""
"","iti_localizer","","html-keyboard-response","239","491568","0.0-2.0-47.0-1.0","30","30126","female","null","","","","null","","45","","","477543","1","","","","","","14000","41400","14025","43508","14000","","","","","","","","","","","","","","","","","","","","","","","","","","","","","","","","","","","","","","","","","","","","","","","","","","","","",""
"","localizer","","html-keyboard-response","240","492060","0.0-2.0-48.0-0.0","30","30126","female","NaN","","","","null","NaN","46","","Stimuli/Experimental_stims/localizer/faces/jake-nackos-IF9TK5Uy-KI-unsplash.jpg","491568","1","faces","","0","1","0","400","55400","492","57533","","","","","","","","","","","","","","","","","","","","","","","","","","","","","","","","","","","","","","","","","","","","","","","","","","","","","",""
"","iti_localizer","","html-keyboard-response","241","492393","0.0-2.0-48.0-1.0","30","30126","female","null","","","","null","","46","","","492060","1","","","","","","300","55800","333","58025","300","","","","","","","","","","","","","","","","","","","","","","","","","","","","","","","","","","","","","","","","","","","","","","","","","","","","",""
"","localizer","","html-keyboard-response","242","492823","0.0-2.0-49.0-0.0","30","30126","female","NaN","","","","null","NaN","47","","Stimuli/Experimental_stims/localizer/faces/ethan-haddox-__ng3cRXmFE-unsplash.jpg","492393","1","faces","","0","1","0","400","56100","430","58358","","","","","","","","","","","","","","","","","","","","","","","","","","","","","","","","","","","","","","","","","","","","","","","","","","","","","",""
"","iti_localizer","","html-keyboard-response","243","493154","0.0-2.0-49.0-1.0","30","30126","female","null","","","","null","","47","","","492823","1","","","","","","300","56500","331","58788","300","","","","","","","","","","","","","","","","","","","","","","","","","","","","","","","","","","","","","","","","","","","","","","","","","","","","",""
"","localizer","","html-keyboard-response","244","493579","0.0-2.0-50.0-0.0","30","30126","female","118","","","","68","0","48","","Stimuli/Experimental_stims/localizer/faces/samuel-dixon--fQ5XNOcqFQ-unsplash.jpg","493154","1","faces","","1","0","0","400","56800","425","59119","","","","","","","","","","","","","","","","","","","","","","","","","","","","","","","","","","","","","","","","","","","","","","","","","","","","","",""
"","iti_localizer","","html-keyboard-response","245","493890","0.0-2.0-50.0-1.0","30","30126","female","null","","","","null","","48","","","493579","1","","","","","","300","57200","311","59544","300","","","","","","","","","","","","","","","","","","","","","","","","","","","","","","","","","","","","","","","","","","","","","","","","","","","","",""
"","localizer","","html-keyboard-response","246","494304","0.0-2.0-51.0-0.0","30","30126","female","32","","","","68","0","49","","Stimuli/Experimental_stims/localizer/faces/jakob-owens-lkMJcGDZLVs-unsplash.jpg","493890","1","faces","","0","0","1","400","57500","414","59855","","","","","","","","","","","","","","","","","","","","","","","","","","","","","","","","","","","","","","","","","","","","","","","","","","","","","",""
"","iti_localizer","","html-keyboard-response","247","494653","0.0-2.0-51.0-1.0","30","30126","female","null","","","","null","","49","","","494304","1","","","","","","300","57900","349","60269","300","","","","","","","","","","","","","","","","","","","","","","","","","","","","","","","","","","","","","","","","","","","","","","","","","","","","",""
