"success","ttype","start_time","trial_type","trial_index","time_elapsed","internal_node_id","age","PID","gender","rt","responses","view_history","repeat_instructions","key_press","response","index","stimulus_index","path","missed_checkup","start_time_elapsed","run","task","isi","is_odd_ball","no_response","acc","duration","onset","duration_time_elapsed","onset_time_elapsed","trial_duration","left_chosen","chosen_stimulus","unchosen_stimulus","chosen_category","unchosen_category","chosen_rating","unchosen_rating","chosen_path","unchosen_path","pair_id","practice","scramble_screen_time","scramble_instructed_side","stim_type","iti","block","left_stimulus","right_stimulus","left_category","right_category","left_path","right_path","left_rating","right_rating","scramble_acc","scramble_no_response","warning","stimulus_id","item_id","outcome","response_rt","deliberation_reward_tally","choice_type","gain_left","left_item_id","right_item_id","higher_outcome_chosen","chosen_left","old_pair","pair_type","old_response","pair_acc","reward_type","outcome_response","outcome_rt","outcome_acc","category","choice","deliberated_stim","old_rating","new_rating","total_reward_tally"
"true","full_screen","d08172023hr1513","fullscreen","0","7020","0.0-0.0-0.0","32","64185","Female","","","","","","","","","","","","","","","","","","","","","","","","","","","","","","","","","","","","","","","","","","","","","","","","","","","","","","","","","","","","","","","","","","","","","","","","","",""
"","get_id","","survey-text","1","16919","0.0-0.0-1.0","32","64185","Female","9882","{""Q0"":""32"",""Q1"":""Female""}","","","","","","","","","","","","","","","","","","","","","","","","","","","","","","","","","","","","","","","","","","","","","","","","","","","","","","","","","","","","","","","","","","","","","","","",""
"","ratings_instructions","","instructions","2","29118","0.0-1.0-0.0-0.0","32","64185","Female","9599","","[{""page_index"":0,""viewing_time"":5808},{""page_index"":1,""viewing_time"":3791}]","","","","","","","","","","","","","","","","","","","","","","","","","","","","","","","","","","","","","","","","","","","","","","","","","","","","","","","","","","","","","","","","","","","","","","",""
"","rating_comprehension_check","","survey-multi-choice","3","38547","0.0-1.0-0.0-1.0","32","64185","Female","9403","{""Q0"":""True"",""Q1"":""Mouse""}","","0","","","","","","","","","","","","","","","","","","","","","","","","","","","","","","","","","","","","","","","","","","","","","","","","","","","","","","","","","","","","","","","","","","","","","",""
"","","","html-keyboard-response","4","42294","0.0-1.0-1.0","32","64185","Female","3729","","","","68","","","","","","","","","","","","","","","","","","","","","","","","","","","","","","","","","","","","","","","","","","","","","","","","","","","","","","","","","","","","","","","","","","","","",""
"","rating","","html-slider-response","5","47741","0.0-1.0-2.0","32","64185","Female","5432","","","","","74","0","28","Stimuli/Experimental_stims/body_parts/ira-vishnevskaya-8DQAvdCby1I-unsplash.jpg","","","","","","","","","","","","","","","","","","","","","","","","","","","","","","","","","","","","","","","","","","","","","","","","","","","","","","","","","","","","","","","","",""
"","rating","","html-slider-response","6","51673","0.0-1.0-3.0","32","64185","Female","3904","","","","","81","1","4","Stimuli/Experimental_stims/outdoor_scenes/jarrett-kow-1ZOyYPOBn7I-unsplash.jpg","","","","","","","","","","","","","","","","","","","","","","","","","","","","","","","","","","","","","","","","","","","","","","","","","","","","","","","","","","","","","","","","",""
"","rating","","html-slider-response","7","54754","0.0-1.0-4.0","32","64185","Female","3062","","","","","38","2","35","Stimuli/Experimental_stims/body_parts/wc-so-KH4AAPjb-tI-unsplash.jpg","","","","","","","","","","","","","","","","","","","","","","","","","","","","","","","","","","","","","","","","","","","","","","","","","","","","","","","","","","","","","","","","",""
"","rating","","html-slider-response","8","58746","0.0-1.0-5.0","32","64185","Female","3975","","","","","80","3","47","Stimuli/Experimental_stims/objects/ronaldo-arthur-vidal-Cdz_lvnl37k-unsplash.jpg","","","","","","","","","","","","","","","","","","","","","","","","","","","","","","","","","","","","","","","","","","","","","","","","","","","","","","","","","","","","","","","","",""
"","rating","","html-slider-response","9","62995","0.0-1.0-6.0","32","64185","Female","4233","","","","","75","4","9","Stimuli/Experimental_stims/outdoor_scenes/sergey-pesterev-y-b_FOmJXdg-unsplash.jpg","","","","","","","","","","","","","","","","","","","","","","","","","","","","","","","","","","","","","","","","","","","","","","","","","","","","","","","","","","","","","","","","",""
"","rating","","html-slider-response","10","65817","0.0-1.0-7.0","32","64185","Female","2797","","","","","50","5","31","Stimuli/Experimental_stims/body_parts/sincerely-media-VN6DbKajo5s-unsplash.jpg","","","","","","","","","","","","","","","","","","","","","","","","","","","","","","","","","","","","","","","","","","","","","","","","","","","","","","","","","","","","","","","","",""
"","rating","","html-slider-response","11","68787","0.0-1.0-8.0","32","64185","Female","2940","","","","","69","6","5","Stimuli/Experimental_stims/outdoor_scenes/jeff-king-bJHWJeiHfHc-unsplash.jpg","","","","","","","","","","","","","","","","","","","","","","","","","","","","","","","","","","","","","","","","","","","","","","","","","","","","","","","","","","","","","","","","",""
"","rating","","html-slider-response","12","72541","0.0-1.0-9.0","32","64185","Female","3730","","","","","21","7","27","Stimuli/Experimental_stims/body_parts/heike-mintel-i_Gns0ELnLw-unsplash.jpg","","","","","","","","","","","","","","","","","","","","","","","","","","","","","","","","","","","","","","","","","","","","","","","","","","","","","","","","","","","","","","","","",""
"","rating","","html-slider-response","13","77817","0.0-1.0-10.0","32","64185","Female","5258","","","","","72","8","37","Stimuli/Experimental_stims/objects/alexander-andrews-VLGWE_SumrA-unsplash.jpg","","","","","","","","","","","","","","","","","","","","","","","","","","","","","","","","","","","","","","","","","","","","","","","","","","","","","","","","","","","","","","","","",""
"","rating","","html-slider-response","14","81185","0.0-1.0-11.0","32","64185","Female","3348","","","","","74","9","19","Stimuli/Experimental_stims/faces/joel-mott-LaK153ghdig-unsplash.jpg","","","","","","","","","","","","","","","","","","","","","","","","","","","","","","","","","","","","","","","","","","","","","","","","","","","","","","","","","","","","","","","","",""
"","rating","","html-slider-response","15","84632","0.0-1.0-12.0","32","64185","Female","3426","","","","","87","10","34","Stimuli/Experimental_stims/body_parts/wagner-santos-mBWMvIuVnso-unsplash.jpg","","","","","","","","","","","","","","","","","","","","","","","","","","","","","","","","","","","","","","","","","","","","","","","","","","","","","","","","","","","","","","","","",""
"","rating","","html-slider-response","16","87841","0.0-1.0-13.0","32","64185","Female","3194","","","","","73","11","22","Stimuli/Experimental_stims/faces/ravi-patel-VMGAbeeJTKo-unsplash.jpg","","","","","","","","","","","","","","","","","","","","","","","","","","","","","","","","","","","","","","","","","","","","","","","","","","","","","","","","","","","","","","","","",""
"","rating","","html-slider-response","17","90694","0.0-1.0-14.0","32","64185","Female","2836","","","","","83","12","1","Stimuli/Experimental_stims/outdoor_scenes/ashim-d-silva-S2Q5mdOrrVc-unsplash.jpg","","","","","","","","","","","","","","","","","","","","","","","","","","","","","","","","","","","","","","","","","","","","","","","","","","","","","","","","","","","","","","","","",""
"","rating","","html-slider-response","18","93452","0.0-1.0-15.0","32","64185","Female","2744","","","","","81","13","15","Stimuli/Experimental_stims/faces/erik-lucatero-d2MSDujJl2g-unsplash.jpg","","","","","","","","","","","","","","","","","","","","","","","","","","","","","","","","","","","","","","","","","","","","","","","","","","","","","","","","","","","","","","","","",""
"","rating","","html-slider-response","19","96599","0.0-1.0-16.0","32","64185","Female","3134","","","","","28","14","17","Stimuli/Experimental_stims/faces/good-faces-xmSWVeGEnJw-unsplash.jpg","","","","","","","","","","","","","","","","","","","","","","","","","","","","","","","","","","","","","","","","","","","","","","","","","","","","","","","","","","","","","","","","",""
"","rating","","html-slider-response","20","100442","0.0-1.0-17.0","32","64185","Female","3813","","","","","76","15","12","Stimuli/Experimental_stims/faces/aiony-haust-jmATI5Q_YgY-unsplash.jpg","","","","","","","","","","","","","","","","","","","","","","","","","","","","","","","","","","","","","","","","","","","","","","","","","","","","","","","","","","","","","","","","",""
"","rating","","html-slider-response","21","103172","0.0-1.0-18.0","32","64185","Female","2699","","","","","82","16","0","Stimuli/Experimental_stims/outdoor_scenes/aleksandra-boguslawska-MS7KD9Ti7FQ-unsplash.jpg","","","","","","","","","","","","","","","","","","","","","","","","","","","","","","","","","","","","","","","","","","","","","","","","","","","","","","","","","","","","","","","","",""
"","rating","","html-slider-response","22","107810","0.0-1.0-19.0","32","64185","Female","4622","","","","","89","17","41","Stimuli/Experimental_stims/objects/insung-yoon-w2JtIQQXoRU-unsplash.jpg","","","","","","","","","","","","","","","","","","","","","","","","","","","","","","","","","","","","","","","","","","","","","","","","","","","","","","","","","","","","","","","","",""
"","rating","","html-slider-response","23","112033","0.0-1.0-20.0","32","64185","Female","4210","","","","","88","18","18","Stimuli/Experimental_stims/faces/jessica-radanavong-mrYkTuAesKE-unsplash.jpg","","","","","","","","","","","","","","","","","","","","","","","","","","","","","","","","","","","","","","","","","","","","","","","","","","","","","","","","","","","","","","","","",""
"","rating","","html-slider-response","24","116475","0.0-1.0-21.0","32","64185","Female","4429","","","","","74","19","11","Stimuli/Experimental_stims/outdoor_scenes/stephen-leonardi-gyIRjKPXupE-unsplash.jpg","","","","","","","","","","","","","","","","","","","","","","","","","","","","","","","","","","","","","","","","","","","","","","","","","","","","","","","","","","","","","","","","",""
"","rating","","html-slider-response","25","121650","0.0-1.0-22.0","32","64185","Female","5163","","","","","73","20","20","Stimuli/Experimental_stims/faces/justin-chen-J7Cf1Gch49E-unsplash.jpg","","","","","","","","","","","","","","","","","","","","","","","","","","","","","","","","","","","","","","","","","","","","","","","","","","","","","","","","","","","","","","","","",""
"","rating","","html-slider-response","26","125772","0.0-1.0-23.0","32","64185","Female","4108","","","","","75","21","23","Stimuli/Experimental_stims/faces/rikonavt-HQjfrvdTfak-unsplash.jpg","","","","","","","","","","","","","","","","","","","","","","","","","","","","","","","","","","","","","","","","","","","","","","","","","","","","","","","","","","","","","","","","",""
"","rating","","html-slider-response","27","129328","0.0-1.0-24.0","32","64185","Female","3546","","","","","36","22","25","Stimuli/Experimental_stims/body_parts/engin-akyurt-Q2rfH3GW39c-unsplash.jpg","","","","","","","","","","","","","","","","","","","","","","","","","","","","","","","","","","","","","","","","","","","","","","","","","","","","","","","","","","","","","","","","",""
"","rating","","html-slider-response","28","132243","0.0-1.0-25.0","32","64185","Female","2897","","","","","73","23","33","Stimuli/Experimental_stims/body_parts/tucker-good-36skLT5jZcc-unsplash.jpg","","","","","","","","","","","","","","","","","","","","","","","","","","","","","","","","","","","","","","","","","","","","","","","","","","","","","","","","","","","","","","","","",""
"","rating","","html-slider-response","29","135041","0.0-1.0-26.0","32","64185","Female","2780","","","","","77","24","32","Stimuli/Experimental_stims/body_parts/towfiqu-barbhuiya-3AsiVDsZnHg-unsplash.jpg","","","","","","","","","","","","","","","","","","","","","","","","","","","","","","","","","","","","","","","","","","","","","","","","","","","","","","","","","","","","","","","","",""
"","rating","","html-slider-response","30","139419","0.0-1.0-27.0","32","64185","Female","4357","","","","","72","25","30","Stimuli/Experimental_stims/body_parts/mika-korhonen-Xodzxosar18-unsplash.jpg","","","","","","","","","","","","","","","","","","","","","","","","","","","","","","","","","","","","","","","","","","","","","","","","","","","","","","","","","","","","","","","","",""
"","rating","","html-slider-response","31","144215","0.0-1.0-28.0","32","64185","Female","4782","","","","","25","26","16","Stimuli/Experimental_stims/faces/freddy-kearney-o-ioeoATbIM-unsplash.jpg","","","","","","","","","","","","","","","","","","","","","","","","","","","","","","","","","","","","","","","","","","","","","","","","","","","","","","","","","","","","","","","","",""
"","rating","","html-slider-response","32","146776","0.0-1.0-29.0","32","64185","Female","2539","","","","","75","27","14","Stimuli/Experimental_stims/faces/david-siglin-UuW4psOb388-unsplash.jpg","","","","","","","","","","","","","","","","","","","","","","","","","","","","","","","","","","","","","","","","","","","","","","","","","","","","","","","","","","","","","","","","",""
"","rating","","html-slider-response","33","149946","0.0-1.0-30.0","32","64185","Female","3158","","","","","70","28","36","Stimuli/Experimental_stims/objects/alexander-andrews-JYGnB9gTCls-unsplash.jpg","","","","","","","","","","","","","","","","","","","","","","","","","","","","","","","","","","","","","","","","","","","","","","","","","","","","","","","","","","","","","","","","",""
"","rating","","html-slider-response","34","153433","0.0-1.0-31.0","32","64185","Female","3478","","","","","68","29","3","Stimuli/Experimental_stims/outdoor_scenes/henry-be-NLF6hTe4PAg-unsplash.jpg","","","","","","","","","","","","","","","","","","","","","","","","","","","","","","","","","","","","","","","","","","","","","","","","","","","","","","","","","","","","","","","","",""
"","rating","","html-slider-response","35","156494","0.0-1.0-32.0","32","64185","Female","3049","","","","","76","30","29","Stimuli/Experimental_stims/body_parts/manuel-schinner-ZwjFuJ7ebpk-unsplash.jpg","","","","","","","","","","","","","","","","","","","","","","","","","","","","","","","","","","","","","","","","","","","","","","","","","","","","","","","","","","","","","","","","",""
"","rating","","html-slider-response","36","162802","0.0-1.0-33.0","32","64185","Female","6295","","","","","74","31","43","Stimuli/Experimental_stims/objects/jonathan-greenaway-Y4hGgeiFn3s-unsplash.jpg","","","","","","","","","","","","","","","","","","","","","","","","","","","","","","","","","","","","","","","","","","","","","","","","","","","","","","","","","","","","","","","","",""
"","rating","","html-slider-response","37","168172","0.0-1.0-34.0","32","64185","Female","5352","","","","","79","32","40","Stimuli/Experimental_stims/objects/fabian-blank-pElSkGRA2NU-unsplash.jpg","","","","","","","","","","","","","","","","","","","","","","","","","","","","","","","","","","","","","","","","","","","","","","","","","","","","","","","","","","","","","","","","",""
"","rating","","html-slider-response","38","171140","0.0-1.0-35.0","32","64185","Female","2952","","","","","69","33","2","Stimuli/Experimental_stims/outdoor_scenes/bruno-van-der-kraan-qez8mNJ3ilU-unsplash.jpg","","","","","","","","","","","","","","","","","","","","","","","","","","","","","","","","","","","","","","","","","","","","","","","","","","","","","","","","","","","","","","","","",""
"","rating","","html-slider-response","39","174344","0.0-1.0-36.0","32","64185","Female","3192","","","","","81","34","26","Stimuli/Experimental_stims/body_parts/engin-akyurt-x_3gyC42btc-unsplash.jpg","","","","","","","","","","","","","","","","","","","","","","","","","","","","","","","","","","","","","","","","","","","","","","","","","","","","","","","","","","","","","","","","",""
"","rating","","html-slider-response","40","177005","0.0-1.0-37.0","32","64185","Female","2650","","","","","41","35","45","Stimuli/Experimental_stims/objects/leohoho-rngTKHXumy0-unsplash.jpg","","","","","","","","","","","","","","","","","","","","","","","","","","","","","","","","","","","","","","","","","","","","","","","","","","","","","","","","","","","","","","","","",""
"","rating","","html-slider-response","41","179617","0.0-1.0-38.0","32","64185","Female","2602","","","","","77","36","6","Stimuli/Experimental_stims/outdoor_scenes/meng-ji-8BH_M-53CyA-unsplash.jpg","","","","","","","","","","","","","","","","","","","","","","","","","","","","","","","","","","","","","","","","","","","","","","","","","","","","","","","","","","","","","","","","",""
"","rating","","html-slider-response","42","188589","0.0-1.0-39.0","32","64185","Female","8950","","","","","78","37","13","Stimuli/Experimental_stims/faces/daniel-rigdon-dXmXKPP2L4E-unsplash.jpg","","","","","","","","","","","","","","","","","","","","","","","","","","","","","","","","","","","","","","","","","","","","","","","","","","","","","","","","","","","","","","","","",""
"","rating","","html-slider-response","43","191502","0.0-1.0-40.0","32","64185","Female","2893","","","","","75","38","44","Stimuli/Experimental_stims/objects/kuiye-chen-NuOGFo4PudE-unsplash.jpg","","","","","","","","","","","","","","","","","","","","","","","","","","","","","","","","","","","","","","","","","","","","","","","","","","","","","","","","","","","","","","","","",""
"","rating","","html-slider-response","44","195020","0.0-1.0-41.0","32","64185","Female","3505","","","","","76","39","42","Stimuli/Experimental_stims/objects/jess-bailey-nOeVi8DsN8U-unsplash.jpg","","","","","","","","","","","","","","","","","","","","","","","","","","","","","","","","","","","","","","","","","","","","","","","","","","","","","","","","","","","","","","","","",""
"","rating","","html-slider-response","45","198202","0.0-1.0-42.0","32","64185","Female","3166","","","","","77","40","24","Stimuli/Experimental_stims/body_parts/clay-banks-LjqARJaJotc-unsplash.jpg","","","","","","","","","","","","","","","","","","","","","","","","","","","","","","","","","","","","","","","","","","","","","","","","","","","","","","","","","","","","","","","","",""
"","rating","","html-slider-response","46","201054","0.0-1.0-43.0","32","64185","Female","2838","","","","","69","41","21","Stimuli/Experimental_stims/faces/leilani-angel-K84vnnzxmTQ-unsplash.jpg","","","","","","","","","","","","","","","","","","","","","","","","","","","","","","","","","","","","","","","","","","","","","","","","","","","","","","","","","","","","","","","","",""
"","rating","","html-slider-response","47","204669","0.0-1.0-44.0","32","64185","Female","3601","","","","","82","42","7","Stimuli/Experimental_stims/outdoor_scenes/petr-vysohlid-9fqwGqGLUxc-unsplash.jpg","","","","","","","","","","","","","","","","","","","","","","","","","","","","","","","","","","","","","","","","","","","","","","","","","","","","","","","","","","","","","","","","",""
"","rating","","html-slider-response","48","207922","0.0-1.0-45.0","32","64185","Female","3236","","","","","85","43","46","Stimuli/Experimental_stims/objects/mockup-graphics-PNsj6RiHAF4-unsplash.jpg","","","","","","","","","","","","","","","","","","","","","","","","","","","","","","","","","","","","","","","","","","","","","","","","","","","","","","","","","","","","","","","","",""
"","rating","","html-slider-response","49","211104","0.0-1.0-46.0","32","64185","Female","3144","","","","","61","44","38","Stimuli/Experimental_stims/objects/art-lasovsky-8XddFc6NkBY-unsplash.jpg","","","","","","","","","","","","","","","","","","","","","","","","","","","","","","","","","","","","","","","","","","","","","","","","","","","","","","","","","","","","","","","","",""
"","rating","","html-slider-response","50","213952","0.0-1.0-47.0","32","64185","Female","2831","","","","","37","45","8","Stimuli/Experimental_stims/outdoor_scenes/samsommer-vddccTqwal8-unsplash.jpg","","","","","","","","","","","","","","","","","","","","","","","","","","","","","","","","","","","","","","","","","","","","","","","","","","","","","","","","","","","","","","","","",""
"","rating","","html-slider-response","51","218644","0.0-1.0-48.0","32","64185","Female","4664","","","","","72","46","10","Stimuli/Experimental_stims/outdoor_scenes/shannon-kunkle-dM8INmkyDas-unsplash.jpg","","","","","","","","","","","","","","","","","","","","","","","","","","","","","","","","","","","","","","","","","","","","","","","","","","","","","","","","","","","","","","","","",""
"","rating","","html-slider-response","52","222084","0.0-1.0-49.0","32","64185","Female","3385","","","","","25","47","39","Stimuli/Experimental_stims/objects/charlesdeluvio-1-nx1QR5dTE-unsplash.jpg","","","","","","","","","","","","","","","","","","","","","","","","","","","","","","","","","","","","","","","","","","","","","","","","","","","","","","","","","","","","","","","","",""
"","localizer_instructions","","instructions","53","244993","0.0-2.0-0.0-0.0","32","64185","Female","22721","","[{""page_index"":0,""viewing_time"":12445},{""page_index"":1,""viewing_time"":7439},{""page_index"":2,""viewing_time"":2836}]","","","","","","","","","","","","","","","","","","","","","","","","","","","","","","","","","","","","","","","","","","","","","","","","","","","","","","","","","","","","","","","","","","","","","","",""
"","localizer_comprehension_check","","survey-multi-choice","54","262402","0.0-2.0-0.0-1.0","32","64185","Female","17378","{""Q0"":""True"",""Q1"":""D"",""Q2"":""K""}","","1","","","","","","","","","","","","","","","","","","","","","","","","","","","","","","","","","","","","","","","","","","","","","","","","","","","","","","","","","","","","","","","","","","","","","",""
"","missed_instruction_checkup","","html-keyboard-response","55","267131","0.0-2.0-0.0-2.0-0.0","32","64185","Female","4710","","","","68","","","","","1","","","","","","","","","","","","","","","","","","","","","","","","","","","","","","","","","","","","","","","","","","","","","","","","","","","","","","","","","","","","","","","",""
"","localizer_instructions","","instructions","56","522655","0.0-2.0-0.1-0.1","32","64185","Female","255493","","[{""page_index"":0,""viewing_time"":79783},{""page_index"":1,""viewing_time"":173825},{""page_index"":2,""viewing_time"":1881}]","","","","","","","","","","","","","","","","","","","","","","","","","","","","","","","","","","","","","","","","","","","","","","","","","","","","","","","","","","","","","","","","","","","","","","",""
"","localizer_comprehension_check","","survey-multi-choice","57","529837","0.0-2.0-0.1-1.1","32","64185","Female","7154","{""Q0"":""True"",""Q1"":""K"",""Q2"":""D""}","","0","","","","","","","","","","","","","","","","","","","","","","","","","","","","","","","","","","","","","","","","","","","","","","","","","","","","","","","","","","","","","","","","","","","","","",""
"","","","html-keyboard-response","58","532623","0.0-2.0-1.0","32","64185","Female","2769","","","","68","","","","","","","","","","","","","","","","","","","","","","","","","","","","","","","","","","","","","","","","","","","","","","","","","","","","","","","","","","","","","","","","","","","","",""
"","localizer","","html-keyboard-response","59","533043","0.0-2.0-2.0-0.0","32","64185","Female","NaN","","","","null","NaN","0","","Stimuli/Practice_stims/Localizer/annie-spratt-g9KFpAfQ5bc-unsplash.jpg","","532623","0","NaN","","0","1","0","400","0","420","0","","","","","","","","","","","","","","","","","","","","","","","","","","","","","","","","","","","","","","","","","","","","","","","","","","","","",""
"","iti_localizer","","html-keyboard-response","60","533358","0.0-2.0-2.0-1.0","32","64185","Female","null","","","","null","","0","","","","533043","0","","","","","","300","400","315","420","300","","","","","","","","","","","","","","","","","","","","","","","","","","","","","","","","","","","","","","","","","","","","","","","","","","","",""
"","localizer","","html-keyboard-response","61","533775","0.0-2.0-2.1-0.1","32","64185","Female","NaN","","","","null","NaN","0","","Stimuli/Practice_stims/Localizer/annie-spratt-g9KFpAfQ5bc-unsplash.jpg","","533358","0","NaN","","0","1","0","400","700","417","735","","","","","","","","","","","","","","","","","","","","","","","","","","","","","","","","","","","","","","","","","","","","","","","","","","","","",""
"","iti_localizer","","html-keyboard-response","62","534191","0.0-2.0-2.1-1.1","32","64185","Female","null","","","","null","","0","","","","533775","0","","","","","","300","1100","416","1152","300","","","","","","","","","","","","","","","","","","","","","","","","","","","","","","","","","","","","","","","","","","","","","","","","","","","",""
"","localizer","","html-keyboard-response","63","534609","0.0-2.0-2.2-0.2","32","64185","Female","NaN","","","","null","NaN","0","","Stimuli/Practice_stims/Localizer/annie-spratt-g9KFpAfQ5bc-unsplash.jpg","","534191","0","NaN","","0","1","0","400","1400","418","1568","","","","","","","","","","","","","","","","","","","","","","","","","","","","","","","","","","","","","","","","","","","","","","","","","","","","",""
"","iti_localizer","","html-keyboard-response","64","534927","0.0-2.0-2.2-1.2","32","64185","Female","null","","","","null","","0","","","","534609","0","","","","","","300","1800","318","1986","300","","","","","","","","","","","","","","","","","","","","","","","","","","","","","","","","","","","","","","","","","","","","","","","","","","","",""
"","localizer","","html-keyboard-response","65","535353","0.0-2.0-2.3-0.3","32","64185","Female","NaN","","","","null","NaN","0","","Stimuli/Practice_stims/Localizer/annie-spratt-g9KFpAfQ5bc-unsplash.jpg","","534927","0","NaN","","0","1","0","400","2100","426","2304","","","","","","","","","","","","","","","","","","","","","","","","","","","","","","","","","","","","","","","","","","","","","","","","","","","","",""
"","iti_localizer","","html-keyboard-response","66","535673","0.0-2.0-2.3-1.3","32","64185","Female","null","","","","null","","0","","","","535353","0","","","","","","300","2500","320","2730","300","","","","","","","","","","","","","","","","","","","","","","","","","","","","","","","","","","","","","","","","","","","","","","","","","","","",""
"","localizer","","html-keyboard-response","67","536143","0.0-2.0-2.4-0.4","32","64185","Female","NaN","","","","null","NaN","0","","Stimuli/Practice_stims/Localizer/annie-spratt-g9KFpAfQ5bc-unsplash.jpg","","535673","0","NaN","","0","1","0","400","2800","470","3050","","","","","","","","","","","","","","","","","","","","","","","","","","","","","","","","","","","","","","","","","","","","","","","","","","","","",""
"","iti_localizer","","html-keyboard-response","68","536460","0.0-2.0-2.4-1.4","32","64185","Female","null","","","","null","","0","","","","536143","0","","","","","","300","3200","317","3520","300","","","","","","","","","","","","","","","","","","","","","","","","","","","","","","","","","","","","","","","","","","","","","","","","","","","",""
"","localizer","","html-keyboard-response","69","536872","0.0-2.0-2.5-0.5","32","64185","Female","390","","","","68","0","0","","Stimuli/Practice_stims/Localizer/annie-spratt-g9KFpAfQ5bc-unsplash.jpg","","536460","0","NaN","","0","0","1","400","3500","412","3837","","","","","","","","","","","","","","","","","","","","","","","","","","","","","","","","","","","","","","","","","","","","","","","","","","","","",""
"","iti_localizer","","html-keyboard-response","70","537193","0.0-2.0-2.5-1.5","32","64185","Female","null","","","","null","","0","","","","536872","0","","","","","","300","3900","321","4249","300","","","","","","","","","","","","","","","","","","","","","","","","","","","","","","","","","","","","","","","","","","","","","","","","","","","",""
"","localizer","","html-keyboard-response","71","537622","0.0-2.0-3.0-0.0","32","64185","Female","237","","","","68","0","1","","Stimuli/Practice_stims/Localizer/becca-tapert-sY5RjMB1KkE-unsplash.jpg","","537193","0","NaN","","0","0","1","400","4200","429","4570","","","","","","","","","","","","","","","","","","","","","","","","","","","","","","","","","","","","","","","","","","","","","","","","","","","","",""
"","iti_localizer","","html-keyboard-response","72","537936","0.0-2.0-3.0-1.0","32","64185","Female","null","","","","null","","1","","","","537622","0","","","","","","300","4600","314","4999","300","","","","","","","","","","","","","","","","","","","","","","","","","","","","","","","","","","","","","","","","","","","","","","","","","","","",""
"","localizer","","html-keyboard-response","73","538354","0.0-2.0-4.0-0.0","32","64185","Female","NaN","","","","null","NaN","2","","Stimuli/Practice_stims/Localizer/charl-durand-bsfXvI25iNg-unsplash.jpg","","537936","0","NaN","","1","1","0","400","4900","418","5313","","","","","","","","","","","","","","","","","","","","","","","","","","","","","","","","","","","","","","","","","","","","","","","","","","","","",""
"","iti_localizer","","html-keyboard-response","74","538685","0.0-2.0-4.0-1.0","32","64185","Female","null","","","","null","","2","","","","538354","0","","","","","","300","5300","331","5731","300","","","","","","","","","","","","","","","","","","","","","","","","","","","","","","","","","","","","","","","","","","","","","","","","","","","",""
"","localizer","","html-keyboard-response","75","539106","0.0-2.0-4.1-0.1","32","64185","Female","5","","","","75","1","2","","Stimuli/Practice_stims/Localizer/charl-durand-bsfXvI25iNg-unsplash.jpg","","538685","0","NaN","","1","0","1","400","5600","421","6062","","","","","","","","","","","","","","","","","","","","","","","","","","","","","","","","","","","","","","","","","","","","","","","","","","","","",""
"","iti_localizer","","html-keyboard-response","76","539424","0.0-2.0-4.1-1.1","32","64185","Female","null","","","","null","","2","","","","539106","0","","","","","","300","6000","318","6483","300","","","","","","","","","","","","","","","","","","","","","","","","","","","","","","","","","","","","","","","","","","","","","","","","","","","",""
"","localizer","","html-keyboard-response","77","539838","0.0-2.0-5.0-0.0","32","64185","Female","382","","","","75","1","3","","Stimuli/Practice_stims/Localizer/nizar-albusaidy-B2r2SWAf5CE-unsplash.jpg","","539424","0","NaN","","0","0","0","400","6300","414","6801","","","","","","","","","","","","","","","","","","","","","","","","","","","","","","","","","","","","","","","","","","","","","","","","","","","","",""
"","iti_localizer","","html-keyboard-response","78","540231","0.0-2.0-5.0-1.0","32","64185","Female","null","","","","null","","3","","","","539838","0","","","","","","300","6700","393","7215","300","","","","","","","","","","","","","","","","","","","","","","","","","","","","","","","","","","","","","","","","","","","","","","","","","","","",""
"","localizer","","html-keyboard-response","79","540677","0.0-2.0-6.0-0.0","32","64185","Female","156","","","","68","0","4","","Stimuli/Practice_stims/Localizer/randy-fath-epf1tdtIIkM-unsplash.jpg","","540231","0","NaN","","1","0","0","400","7000","446","7608","","","","","","","","","","","","","","","","","","","","","","","","","","","","","","","","","","","","","","","","","","","","","","","","","","","","",""
"","iti_localizer","","html-keyboard-response","80","540997","0.0-2.0-6.0-1.0","32","64185","Female","null","","","","null","","4","","","","540677","0","","","","","","300","7400","320","8054","300","","","","","","","","","","","","","","","","","","","","","","","","","","","","","","","","","","","","","","","","","","","","","","","","","","","",""
"","localizer","","html-keyboard-response","81","541425","0.0-2.0-7.0-0.0","32","64185","Female","155","","","","75","1","5","","Stimuli/Practice_stims/Localizer/yassine-khalfalli-adsQ9d_Cx0c-unsplash.jpg","","540997","0","NaN","","0","0","0","400","7700","428","8374","","","","","","","","","","","","","","","","","","","","","","","","","","","","","","","","","","","","","","","","","","","","","","","","","","","","",""
"","iti_localizer","","html-keyboard-response","82","541746","0.0-2.0-7.0-1.0","32","64185","Female","null","","","","null","","5","","","","541425","0","","","","","","300","8100","321","8802","300","","","","","","","","","","","","","","","","","","","","","","","","","","","","","","","","","","","","","","","","","","","","","","","","","","","",""
"","practice_over","","html-keyboard-response","83","542178","0.0-2.0-7.0-2.0-0.0","32","64185","Female","420","","","","68","","","","","","","","","","","","","","","","","","","","","","","","","","","","","","","","","","","","","","","","","","","","","","","","","","","","","","","","","","","","","","","","","","","","",""
"","start_run","","html-keyboard-response","84","544465","0.0-2.0-7.0-2.0-1.0","32","64185","Female","2275","","","","84","","","","","","","","","","","","","","","","","","","","","","","","","","","","","","","","","","","","","","","","","","","","","","","","","","","","","","","","","","","","","","","","","","","","",""
"","localizer","","html-keyboard-response","85","544882","0.0-2.0-8.0-0.0","32","64185","Female","NaN","","","","null","NaN","6","","Stimuli/Experimental_stims/localizer/body_parts/igordoon-primus-CdyHqfrbGIs-unsplash.jpg","","544465","1","body_parts","","0","1","0","400","0","417","0","","","","","","","","","","","","","","","","","","","","","","","","","","","","","","","","","","","","","","","","","","","","","","","","","","","","",""
"","iti_localizer","","html-keyboard-response","86","545202","0.0-2.0-8.0-1.0","32","64185","Female","null","","","","null","","6","","","","544882","1","","","","","","300","400","320","417","300","","","","","","","","","","","","","","","","","","","","","","","","","","","","","","","","","","","","","","","","","","","","","","","","","","","",""
"","localizer","","html-keyboard-response","87","545629","0.0-2.0-9.0-0.0","32","64185","Female","NaN","","","","null","NaN","7","","Stimuli/Experimental_stims/localizer/body_parts/jonathan-borba-hTwH8QFkPMs-unsplash.jpg","","545202","1","body_parts","","0","1","0","400","700","427","737","","","","","","","","","","","","","","","","","","","","","","","","","","","","","","","","","","","","","","","","","","","","","","","","","","","","",""
"","iti_localizer","","html-keyboard-response","88","545948","0.0-2.0-9.0-1.0","32","64185","Female","null","","","","null","","7","","","","545629","1","","","","","","300","1100","319","1164","300","","","","","","","","","","","","","","","","","","","","","","","","","","","","","","","","","","","","","","","","","","","","","","","","","","","",""
"","localizer","","html-keyboard-response","89","546359","0.0-2.0-10.0-0.0","32","64185","Female","NaN","","","","null","NaN","8","","Stimuli/Experimental_stims/localizer/body_parts/marcel-fagin-OUYg0Q3ec-Y-unsplash.jpg","","545948","1","body_parts","","1","1","0","400","1400","411","1483","","","","","","","","","","","","","","","","","","","","","","","","","","","","","","","","","","","","","","","","","","","","","","","","","","","","",""
"","iti_localizer","","html-keyboard-response","90","546740","0.0-2.0-10.0-1.0","32","64185","Female","null","","","","null","","8","","","","546359","1","","","","","","300","1800","381","1894","300","","","","","","","","","","","","","","","","","","","","","","","","","","","","","","","","","","","","","","","","","","","","","","","","","","","",""
"","localizer","","html-keyboard-response","91","547168","0.0-2.0-11.0-0.0","32","64185","Female","349","","","","75","1","9","","Stimuli/Experimental_stims/localizer/body_parts/anelya-okapova-V69kmOyZ3SU-unsplash.jpg","","546740","1","body_parts","","0","0","0","400","2100","428","2275","","","","","","","","","","","","","","","","","","","","","","","","","","","","","","","","","","","","","","","","","","","","","","","","","","","","",""
"","iti_localizer","","html-keyboard-response","92","547488","0.0-2.0-11.0-1.0","32","64185","Female","null","","","","null","","9","","","","547168","1","","","","","","300","2500","320","2703","300","","","","","","","","","","","","","","","","","","","","","","","","","","","","","","","","","","","","","","","","","","","","","","","","","","","",""
"","localizer","","html-keyboard-response","93","547915","0.0-2.0-12.0-0.0","32","64185","Female","NaN","","","","null","NaN","10","","Stimuli/Experimental_stims/localizer/body_parts/jan-romero-DL4DDQb8yjc-unsplash.jpg","","547488","1","body_parts","","0","1","0","400","2800","427","3023","","","","","","","","","","","","","","","","","","","","","","","","","","","","","","","","","","","","","","","","","","","","","","","","","","","","",""
"","iti_localizer","","html-keyboard-response","94","548256","0.0-2.0-12.0-1.0","32","64185","Female","null","","","","null","","10","","","","547915","1","","","","","","300","3200","341","3450","300","","","","","","","","","","","","","","","","","","","","","","","","","","","","","","","","","","","","","","","","","","","","","","","","","","","",""
"","localizer","","html-keyboard-response","95","548685","0.0-2.0-13.0-0.0","32","64185","Female","NaN","","","","null","NaN","11","","Stimuli/Experimental_stims/localizer/body_parts/pure-julia-9lVaya31sMk-unsplash.jpg","","548256","1","body_parts","","0","1","0","400","3500","429","3791","","","","","","","","","","","","","","","","","","","","","","","","","","","","","","","","","","","","","","","","","","","","","","","","","","","","",""
"","iti_localizer","","html-keyboard-response","96","549008","0.0-2.0-13.0-1.0","32","64185","Female","null","","","","null","","11","","","","548685","1","","","","","","300","3900","323","4220","300","","","","","","","","","","","","","","","","","","","","","","","","","","","","","","","","","","","","","","","","","","","","","","","","","","","",""
"","localizer","","html-keyboard-response","97","549427","0.0-2.0-14.0-0.0","32","64185","Female","NaN","","","","null","NaN","12","","Stimuli/Experimental_stims/localizer/body_parts/jasper-garratt-Ng_Kl7K6V8Y-unsplash.jpg","","549008","1","body_parts","","0","1","0","400","4200","419","4543","","","","","","","","","","","","","","","","","","","","","","","","","","","","","","","","","","","","","","","","","","","","","","","","","","","","",""
"","iti_localizer","","html-keyboard-response","98","549747","0.0-2.0-14.0-1.0","32","64185","Female","null","","","","null","","12","","","","549427","1","","","","","","300","4600","320","4962","300","","","","","","","","","","","","","","","","","","","","","","","","","","","","","","","","","","","","","","","","","","","","","","","","","","","",""
"","localizer","","html-keyboard-response","99","550202","0.0-2.0-15.0-0.0","32","64185","Female","NaN","","","","null","NaN","13","","Stimuli/Experimental_stims/localizer/body_parts/i-am_nah--S4OsO0c6Ts-unsplash.jpg","","549747","1","body_parts","","0","1","0","400","4900","455","5282","","","","","","","","","","","","","","","","","","","","","","","","","","","","","","","","","","","","","","","","","","","","","","","","","","","","",""
"","iti_localizer","","html-keyboard-response","100","550526","0.0-2.0-15.0-1.0","32","64185","Female","null","","","","null","","13","","","","550202","1","","","","","","300","5300","324","5737","300","","","","","","","","","","","","","","","","","","","","","","","","","","","","","","","","","","","","","","","","","","","","","","","","","","","",""
"","localizer","","html-keyboard-response","101","550949","0.0-2.0-16.0-0.0","32","64185","Female","162","","","","68","0","14","","Stimuli/Experimental_stims/localizer/body_parts/femme-spirit-RGYBDUHYbyM-unsplash.jpg","","550526","1","body_parts","","0","0","1","400","5600","423","6061","","","","","","","","","","","","","","","","","","","","","","","","","","","","","","","","","","","","","","","","","","","","","","","","","","","","",""
"","iti_localizer","","html-keyboard-response","102","551263","0.0-2.0-16.0-1.0","32","64185","Female","null","","","","null","","14","","","","550949","1","","","","","","300","6000","314","6484","300","","","","","","","","","","","","","","","","","","","","","","","","","","","","","","","","","","","","","","","","","","","","","","","","","","","",""
"","localizer","","html-keyboard-response","103","551687","0.0-2.0-17.0-0.0","32","64185","Female","97","","","","68","0","15","","Stimuli/Experimental_stims/localizer/body_parts/liv-bruce-M0oVPGsWk1E-unsplash.jpg","","551263","1","body_parts","","0","0","1","400","6300","424","6798","","","","","","","","","","","","","","","","","","","","","","","","","","","","","","","","","","","","","","","","","","","","","","","","","","","","",""
"","iti_localizer","","html-keyboard-response","104","552098","0.0-2.0-17.0-1.0","32","64185","Female","null","","","","null","","15","","","","551687","1","","","","","","300","6700","411","7222","300","","","","","","","","","","","","","","","","","","","","","","","","","","","","","","","","","","","","","","","","","","","","","","","","","","","",""
"","localizer","","html-keyboard-response","105","552523","0.0-2.0-18.0-0.0","32","64185","Female","160","","","","68","0","16","","Stimuli/Experimental_stims/localizer/body_parts/bady-abbas-N-VEeMnm7gE-unsplash.jpg","","552098","1","body_parts","","0","0","1","400","7000","425","7633","","","","","","","","","","","","","","","","","","","","","","","","","","","","","","","","","","","","","","","","","","","","","","","","","","","","",""
"","iti_localizer","","html-keyboard-response","106","552844","0.0-2.0-18.0-1.0","32","64185","Female","null","","","","null","","16","","","","552523","1","","","","","","300","7400","321","8058","300","","","","","","","","","","","","","","","","","","","","","","","","","","","","","","","","","","","","","","","","","","","","","","","","","","","",""
"","localizer","","html-keyboard-response","107","553263","0.0-2.0-19.0-0.0","32","64185","Female","60","","","","68","0","17","","Stimuli/Experimental_stims/localizer/body_parts/lucaxx-freire-CacZwMexYdk-unsplash.jpg","","552844","1","body_parts","","0","0","1","400","7700","419","8379","","","","","","","","","","","","","","","","","","","","","","","","","","","","","","","","","","","","","","","","","","","","","","","","","","","","",""
"","iti_localizer","","html-keyboard-response","108","553582","0.0-2.0-19.0-1.0","32","64185","Female","null","","","","null","","17","","","","553263","1","","","","","","300","8100","319","8798","300","","","","","","","","","","","","","","","","","","","","","","","","","","","","","","","","","","","","","","","","","","","","","","","","","","","",""
"","localizer","","html-keyboard-response","109","554273","0.0-2.0-20.0-0.0","32","64185","Female","61","","","","68","0","18","","Stimuli/Experimental_stims/localizer/body_parts/hu-chen-tCbTGNwrFNM-unsplash.jpg","","553582","1","body_parts","","0","0","1","400","8400","691","9117","","","","","","","","","","","","","","","","","","","","","","","","","","","","","","","","","","","","","","","","","","","","","","","","","","","","",""
"","iti_localizer","","html-keyboard-response","110","554596","0.0-2.0-20.0-1.0","32","64185","Female","null","","","","null","","18","","","","554273","1","","","","","","300","8800","323","9808","300","","","","","","","","","","","","","","","","","","","","","","","","","","","","","","","","","","","","","","","","","","","","","","","","","","","",""
"","localizer","","html-keyboard-response","111","555010","0.0-2.0-21.0-0.0","32","64185","Female","NaN","","","","null","NaN","19","","Stimuli/Experimental_stims/localizer/body_parts/megan-menegay-UojxG_BJxnI-unsplash.jpg","","554596","1","body_parts","","0","1","0","400","9100","414","10131","","","","","","","","","","","","","","","","","","","","","","","","","","","","","","","","","","","","","","","","","","","","","","","","","","","","",""
"","iti_localizer","","html-keyboard-response","112","555324","0.0-2.0-21.0-1.0","32","64185","Female","null","","","","null","","19","","","","555010","1","","","","","","300","9500","314","10545","300","","","","","","","","","","","","","","","","","","","","","","","","","","","","","","","","","","","","","","","","","","","","","","","","","","","",""
"","localizer","","html-keyboard-response","113","555743","0.0-2.0-22.0-0.0","32","64185","Female","200","","","","68","0","20","","Stimuli/Experimental_stims/localizer/body_parts/toan-nguyen-VIeLuUFzesg-unsplash.jpg","","555324","1","body_parts","","1","0","0","400","9800","419","10859","","","","","","","","","","","","","","","","","","","","","","","","","","","","","","","","","","","","","","","","","","","","","","","","","","","","",""
"","iti_localizer","","html-keyboard-response","114","556065","0.0-2.0-22.0-1.0","32","64185","Female","null","","","","null","","20","","","","555743","1","","","","","","300","10200","322","11278","300","","","","","","","","","","","","","","","","","","","","","","","","","","","","","","","","","","","","","","","","","","","","","","","","","","","",""
"","localizer","","html-keyboard-response","115","556516","0.0-2.0-23.0-0.0","32","64185","Female","361","","","","75","1","21","","Stimuli/Experimental_stims/localizer/body_parts/sippakorn-yamkasikorn-32_sJlJa5gA-unsplash.jpg","","556065","1","body_parts","","0","0","0","400","10500","451","11600","","","","","","","","","","","","","","","","","","","","","","","","","","","","","","","","","","","","","","","","","","","","","","","","","","","","",""
"","iti_localizer","","html-keyboard-response","116","556834","0.0-2.0-23.0-1.0","32","64185","Female","null","","","","null","","21","","","","556516","1","","","","","","300","10900","318","12051","300","","","","","","","","","","","","","","","","","","","","","","","","","","","","","","","","","","","","","","","","","","","","","","","","","","","",""
"","localizer","","html-keyboard-response","117","557247","0.0-2.0-24.0-0.0","32","64185","Female","234","","","","68","0","22","","Stimuli/Experimental_stims/localizer/body_parts/louis-hansel-FjKTMRTQYAs-unsplash.jpg","","556834","1","body_parts","","0","0","1","400","11200","413","12369","","","","","","","","","","","","","","","","","","","","","","","","","","","","","","","","","","","","","","","","","","","","","","","","","","","","",""
"","iti_localizer","","html-keyboard-response","118","557573","0.0-2.0-24.0-1.0","32","64185","Female","null","","","","null","","22","","","","557247","1","","","","","","300","11600","326","12782","300","","","","","","","","","","","","","","","","","","","","","","","","","","","","","","","","","","","","","","","","","","","","","","","","","","","",""
"","localizer","","html-keyboard-response","119","557995","0.0-2.0-25.0-0.0","32","64185","Female","349","","","","68","0","23","","Stimuli/Experimental_stims/localizer/body_parts/sydney-herron-b2W04fGuS70-unsplash.jpg","","557573","1","body_parts","","0","0","1","400","11900","422","13108","","","","","","","","","","","","","","","","","","","","","","","","","","","","","","","","","","","","","","","","","","","","","","","","","","","","",""
"","iti_localizer","","html-keyboard-response","120","558343","0.0-2.0-25.0-1.0","32","64185","Female","null","","","","null","","23","","","","557995","1","","","","","","300","12300","348","13530","300","","","","","","","","","","","","","","","","","","","","","","","","","","","","","","","","","","","","","","","","","","","","","","","","","","","",""
"","localizer","","html-keyboard-response","121","558764","0.0-2.0-26.0-0.0","32","64185","Female","NaN","","","","null","NaN","24","","Stimuli/Experimental_stims/localizer/body_parts/danie-franco-jyyNiSEcCl4-unsplash.jpg","","558343","1","body_parts","","0","1","0","400","12600","421","13878","","","","","","","","","","","","","","","","","","","","","","","","","","","","","","","","","","","","","","","","","","","","","","","","","","","","",""
"","iti_localizer","","html-keyboard-response","122","559078","0.0-2.0-26.0-1.0","32","64185","Female","null","","","","null","","24","","","","558764","1","","","","","","300","13000","314","14299","300","","","","","","","","","","","","","","","","","","","","","","","","","","","","","","","","","","","","","","","","","","","","","","","","","","","",""
"","localizer","","html-keyboard-response","123","559495","0.0-2.0-27.0-0.0","32","64185","Female","NaN","","","","null","NaN","25","","Stimuli/Experimental_stims/localizer/body_parts/ramesh-iyer-CRhznMXoJlc-unsplash.jpg","","559078","1","body_parts","","0","1","0","400","13300","417","14613","","","","","","","","","","","","","","","","","","","","","","","","","","","","","","","","","","","","","","","","","","","","","","","","","","","","",""
"","iti_localizer","","html-keyboard-response","124","573521","0.0-2.0-27.0-1.0","32","64185","Female","null","","","","null","","25","","","","559495","1","","","","","","14000","13700","14026","15030","14000","","","","","","","","","","","","","","","","","","","","","","","","","","","","","","","","","","","","","","","","","","","","","","","","","","","",""
"","localizer","","html-keyboard-response","125","573941","0.0-2.0-28.0-0.0","32","64185","Female","NaN","","","","null","NaN","26","","Stimuli/Experimental_stims/localizer/objects/adriano-pucciarelli-BE7yaZnZX6o-unsplash.jpg","","573521","1","objects","","0","1","0","400","27700","420","29056","","","","","","","","","","","","","","","","","","","","","","","","","","","","","","","","","","","","","","","","","","","","","","","","","","","","",""
"","iti_localizer","","html-keyboard-response","126","574248","0.0-2.0-28.0-1.0","32","64185","Female","null","","","","null","","26","","","","573941","1","","","","","","300","28100","307","29476","300","","","","","","","","","","","","","","","","","","","","","","","","","","","","","","","","","","","","","","","","","","","","","","","","","","","",""
"","localizer","","html-keyboard-response","127","574669","0.0-2.0-29.0-0.0","32","64185","Female","NaN","","","","null","NaN","27","","Stimuli/Experimental_stims/localizer/objects/petr-sidorov-3jm5TGqtULU-unsplash.jpg","","574248","1","objects","","0","1","0","400","28400","421","29783","","","","","","","","","","","","","","","","","","","","","","","","","","","","","","","","","","","","","","","","","","","","","","","","","","","","",""
"","iti_localizer","","html-keyboard-response","128","574984","0.0-2.0-29.0-1.0","32","64185","Female","null","","","","null","","27","","","","574669","1","","","","","","300","28800","315","30204","300","","","","","","","","","","","","","","","","","","","","","","","","","","","","","","","","","","","","","","","","","","","","","","","","","","","",""
"","localizer","","html-keyboard-response","129","575408","0.0-2.0-30.0-0.0","32","64185","Female","NaN","","","","null","NaN","28","","Stimuli/Experimental_stims/localizer/objects/carlos-felipe-ramirez-mesa-HW7bfB3ERSQ-unsplash.jpg","","574984","1","objects","","0","1","0","400","29100","424","30519","","","","","","","","","","","","","","","","","","","","","","","","","","","","","","","","","","","","","","","","","","","","","","","","","","","","",""
"","iti_localizer","","html-keyboard-response","130","575749","0.0-2.0-30.0-1.0","32","64185","Female","null","","","","null","","28","","","","575408","1","","","","","","300","29500","341","30943","300","","","","","","","","","","","","","","","","","","","","","","","","","","","","","","","","","","","","","","","","","","","","","","","","","","","",""
"","localizer","","html-keyboard-response","131","576173","0.0-2.0-31.0-0.0","32","64185","Female","189","","","","68","0","29","","Stimuli/Experimental_stims/localizer/objects/raimond-klavins-ZdvDPXVvcKs-unsplash.jpg","","575749","1","objects","","1","0","0","400","29800","424","31284","","","","","","","","","","","","","","","","","","","","","","","","","","","","","","","","","","","","","","","","","","","","","","","","","","","","",""
"","iti_localizer","","html-keyboard-response","132","576480","0.0-2.0-31.0-1.0","32","64185","Female","null","","","","null","","29","","","","576173","1","","","","","","300","30200","307","31708","300","","","","","","","","","","","","","","","","","","","","","","","","","","","","","","","","","","","","","","","","","","","","","","","","","","","",""
"","localizer","","html-keyboard-response","133","576904","0.0-2.0-32.0-0.0","32","64185","Female","157","","","","68","0","30","","Stimuli/Experimental_stims/localizer/objects/adriano-pucciarelli-Jl3S1yM8gi8-unsplash.jpg","","576480","1","objects","","0","0","1","400","30500","424","32015","","","","","","","","","","","","","","","","","","","","","","","","","","","","","","","","","","","","","","","","","","","","","","","","","","","","",""
"","iti_localizer","","html-keyboard-response","134","577218","0.0-2.0-32.0-1.0","32","64185","Female","null","","","","null","","30","","","","576904","1","","","","","","300","30900","314","32439","300","","","","","","","","","","","","","","","","","","","","","","","","","","","","","","","","","","","","","","","","","","","","","","","","","","","",""
"","localizer","","html-keyboard-response","135","577631","0.0-2.0-33.0-0.0","32","64185","Female","163","","","","68","0","31","","Stimuli/Experimental_stims/localizer/objects/engin-akyurt-bbbKzTmY2Gg-unsplash.jpg","","577218","1","objects","","0","0","1","400","31200","413","32753","","","","","","","","","","","","","","","","","","","","","","","","","","","","","","","","","","","","","","","","","","","","","","","","","","","","",""
"","iti_localizer","","html-keyboard-response","136","577941","0.0-2.0-33.0-1.0","32","64185","Female","null","","","","null","","31","","","","577631","1","","","","","","300","31600","310","33166","300","","","","","","","","","","","","","","","","","","","","","","","","","","","","","","","","","","","","","","","","","","","","","","","","","","","",""
"","localizer","","html-keyboard-response","137","578358","0.0-2.0-34.0-0.0","32","64185","Female","NaN","","","","null","NaN","32","","Stimuli/Experimental_stims/localizer/objects/sam-moghadam-khamseh-kvmdsTrGOBM-unsplash.jpg","","577941","1","objects","","0","1","0","400","31900","417","33476","","","","","","","","","","","","","","","","","","","","","","","","","","","","","","","","","","","","","","","","","","","","","","","","","","","","",""
"","iti_localizer","","html-keyboard-response","138","578677","0.0-2.0-34.0-1.0","32","64185","Female","null","","","","null","","32","","","","578358","1","","","","","","300","32300","319","33893","300","","","","","","","","","","","","","","","","","","","","","","","","","","","","","","","","","","","","","","","","","","","","","","","","","","","",""
"","localizer","","html-keyboard-response","139","579118","0.0-2.0-35.0-0.0","32","64185","Female","26","","","","68","0","33","","Stimuli/Experimental_stims/localizer/objects/jiangxulei1990-eIzzzwtkBjU-unsplash.jpg","","578677","1","objects","","0","0","1","400","32600","441","34212","","","","","","","","","","","","","","","","","","","","","","","","","","","","","","","","","","","","","","","","","","","","","","","","","","","","",""
"","iti_localizer","","html-keyboard-response","140","579426","0.0-2.0-35.0-1.0","32","64185","Female","null","","","","null","","33","","","","579118","1","","","","","","300","33000","308","34653","300","","","","","","","","","","","","","","","","","","","","","","","","","","","","","","","","","","","","","","","","","","","","","","","","","","","",""
"","localizer","","html-keyboard-response","141","579839","0.0-2.0-36.0-0.0","32","64185","Female","NaN","","","","null","NaN","34","","Stimuli/Experimental_stims/localizer/objects/florian-klauer-nptLmg6jqDo-unsplash.jpg","","579426","1","objects","","0","1","0","400","33300","413","34961","","","","","","","","","","","","","","","","","","","","","","","","","","","","","","","","","","","","","","","","","","","","","","","","","","","","",""
"","iti_localizer","","html-keyboard-response","142","580153","0.0-2.0-36.0-1.0","32","64185","Female","null","","","","null","","34","","","","579839","1","","","","","","300","33700","314","35374","300","","","","","","","","","","","","","","","","","","","","","","","","","","","","","","","","","","","","","","","","","","","","","","","","","","","",""
"","localizer","","html-keyboard-response","143","580567","0.0-2.0-37.0-0.0","32","64185","Female","14","","","","68","0","35","","Stimuli/Experimental_stims/localizer/objects/ignat-dolomanov-kFBDVnmskPA-unsplash.jpg","","580153","1","objects","","0","0","1","400","34000","414","35688","","","","","","","","","","","","","","","","","","","","","","","","","","","","","","","","","","","","","","","","","","","","","","","","","","","","",""
"","iti_localizer","","html-keyboard-response","144","580877","0.0-2.0-37.0-1.0","32","64185","Female","null","","","","null","","35","","","","580567","1","","","","","","300","34400","310","36102","300","","","","","","","","","","","","","","","","","","","","","","","","","","","","","","","","","","","","","","","","","","","","","","","","","","","",""
"","localizer","","html-keyboard-response","145","581340","0.0-2.0-38.0-0.0","32","64185","Female","NaN","","","","null","NaN","36","","Stimuli/Experimental_stims/localizer/objects/andrew-petrov-TVJqDat4MAw-unsplash.jpg","","580877","1","objects","","0","1","0","400","34700","463","36412","","","","","","","","","","","","","","","","","","","","","","","","","","","","","","","","","","","","","","","","","","","","","","","","","","","","",""
"","iti_localizer","","html-keyboard-response","146","581664","0.0-2.0-38.0-1.0","32","64185","Female","null","","","","null","","36","","","","581340","1","","","","","","300","35100","324","36875","300","","","","","","","","","","","","","","","","","","","","","","","","","","","","","","","","","","","","","","","","","","","","","","","","","","","",""
"","localizer","","html-keyboard-response","147","582080","0.0-2.0-39.0-0.0","32","64185","Female","NaN","","","","null","NaN","37","","Stimuli/Experimental_stims/localizer/objects/sam-moghadam-khamseh-L_7MQsHl_aU-unsplash.jpg","","581664","1","objects","","0","1","0","400","35400","416","37199","","","","","","","","","","","","","","","","","","","","","","","","","","","","","","","","","","","","","","","","","","","","","","","","","","","","",""
"","iti_localizer","","html-keyboard-response","148","582400","0.0-2.0-39.0-1.0","32","64185","Female","null","","","","null","","37","","","","582080","1","","","","","","300","35800","320","37615","300","","","","","","","","","","","","","","","","","","","","","","","","","","","","","","","","","","","","","","","","","","","","","","","","","","","",""
"","localizer","","html-keyboard-response","149","582812","0.0-2.0-40.0-0.0","32","64185","Female","NaN","","","","null","NaN","38","","Stimuli/Experimental_stims/localizer/objects/ana-9GmAaEMMKho-unsplash.jpg","","582400","1","objects","","0","1","0","400","36100","412","37935","","","","","","","","","","","","","","","","","","","","","","","","","","","","","","","","","","","","","","","","","","","","","","","","","","","","",""
"","iti_localizer","","html-keyboard-response","150","583160","0.0-2.0-40.0-1.0","32","64185","Female","null","","","","null","","38","","","","582812","1","","","","","","300","36500","348","38347","300","","","","","","","","","","","","","","","","","","","","","","","","","","","","","","","","","","","","","","","","","","","","","","","","","","","",""
"","localizer","","html-keyboard-response","151","583580","0.0-2.0-41.0-0.0","32","64185","Female","NaN","","","","null","NaN","39","","Stimuli/Experimental_stims/localizer/objects/mockup-graphics-U6ZMEefFGx8-unsplash.jpg","","583160","1","objects","","0","1","0","400","36800","420","38695","","","","","","","","","","","","","","","","","","","","","","","","","","","","","","","","","","","","","","","","","","","","","","","","","","","","",""
"","iti_localizer","","html-keyboard-response","152","583905","0.0-2.0-41.0-1.0","32","64185","Female","null","","","","null","","39","","","","583580","1","","","","","","300","37200","325","39115","300","","","","","","","","","","","","","","","","","","","","","","","","","","","","","","","","","","","","","","","","","","","","","","","","","","","",""
"","localizer","","html-keyboard-response","153","584323","0.0-2.0-42.0-0.0","32","64185","Female","NaN","","","","null","NaN","40","","Stimuli/Experimental_stims/localizer/objects/kelly-jean-cKjbI0Y00X0-unsplash.jpg","","583905","1","objects","","0","1","0","400","37500","418","39440","","","","","","","","","","","","","","","","","","","","","","","","","","","","","","","","","","","","","","","","","","","","","","","","","","","","",""
"","iti_localizer","","html-keyboard-response","154","584639","0.0-2.0-42.0-1.0","32","64185","Female","null","","","","null","","40","","","","584323","1","","","","","","300","37900","316","39858","300","","","","","","","","","","","","","","","","","","","","","","","","","","","","","","","","","","","","","","","","","","","","","","","","","","","",""
"","localizer","","html-keyboard-response","155","585065","0.0-2.0-43.0-0.0","32","64185","Female","24","","","","68","0","41","","Stimuli/Experimental_stims/localizer/objects/eugene-chystiakov-3neSwyntbQ8-unsplash.jpg","","584639","1","objects","","0","0","1","400","38200","426","40174","","","","","","","","","","","","","","","","","","","","","","","","","","","","","","","","","","","","","","","","","","","","","","","","","","","","",""
"","iti_localizer","","html-keyboard-response","156","585388","0.0-2.0-43.0-1.0","32","64185","Female","null","","","","null","","41","","","","585065","1","","","","","","300","38600","323","40600","300","","","","","","","","","","","","","","","","","","","","","","","","","","","","","","","","","","","","","","","","","","","","","","","","","","","",""
"","localizer","","html-keyboard-response","157","586053","0.0-2.0-44.0-0.0","32","64185","Female","97","","","","68","0","42","","Stimuli/Experimental_stims/localizer/objects/lance-reis-v0FYj9iioQg-unsplash.jpg","","585388","1","objects","","0","0","1","400","38900","665","40923","","","","","","","","","","","","","","","","","","","","","","","","","","","","","","","","","","","","","","","","","","","","","","","","","","","","",""
"","iti_localizer","","html-keyboard-response","158","586382","0.0-2.0-44.0-1.0","32","64185","Female","null","","","","null","","42","","","","586053","1","","","","","","300","39300","329","41588","300","","","","","","","","","","","","","","","","","","","","","","","","","","","","","","","","","","","","","","","","","","","","","","","","","","","",""
"","localizer","","html-keyboard-response","159","586868","0.0-2.0-45.0-0.0","32","64185","Female","451","","","","68","0","43","","Stimuli/Experimental_stims/localizer/objects/annie-spratt-fbAnIjhrOL4-unsplash.jpg","","586382","1","objects","","0","0","1","400","39600","486","41917","","","","","","","","","","","","","","","","","","","","","","","","","","","","","","","","","","","","","","","","","","","","","","","","","","","","",""
"","iti_localizer","","html-keyboard-response","160","587204","0.0-2.0-45.0-1.0","32","64185","Female","null","","","","null","","43","","","","586868","1","","","","","","300","40000","336","42403","300","","","","","","","","","","","","","","","","","","","","","","","","","","","","","","","","","","","","","","","","","","","","","","","","","","","",""
"","localizer","","html-keyboard-response","161","587618","0.0-2.0-46.0-0.0","32","64185","Female","180","","","","68","0","44","","Stimuli/Experimental_stims/localizer/objects/mockup-graphics-Pj2PY-E-LfM-unsplash.jpg","","587204","1","objects","","1","0","0","400","40300","414","42739","","","","","","","","","","","","","","","","","","","","","","","","","","","","","","","","","","","","","","","","","","","","","","","","","","","","",""
"","iti_localizer","","html-keyboard-response","162","587932","0.0-2.0-46.0-1.0","32","64185","Female","null","","","","null","","44","","","","587618","1","","","","","","300","40700","314","43153","300","","","","","","","","","","","","","","","","","","","","","","","","","","","","","","","","","","","","","","","","","","","","","","","","","","","",""
"","localizer","","html-keyboard-response","163","588352","0.0-2.0-47.0-0.0","32","64185","Female","NaN","","","","null","NaN","45","","Stimuli/Experimental_stims/localizer/objects/dario-mendez-hnJ2VNZzbns-unsplash.jpg","","587932","1","objects","","0","1","0","400","41000","420","43467","","","","","","","","","","","","","","","","","","","","","","","","","","","","","","","","","","","","","","","","","","","","","","","","","","","","",""
"","iti_localizer","","html-keyboard-response","164","602371","0.0-2.0-47.0-1.0","32","64185","Female","null","","","","null","","45","","","","588352","1","","","","","","14000","41400","14019","43887","14000","","","","","","","","","","","","","","","","","","","","","","","","","","","","","","","","","","","","","","","","","","","","","","","","","","","",""
"","localizer","","html-keyboard-response","165","602787","0.0-2.0-48.0-0.0","32","64185","Female","NaN","","","","null","NaN","46","","Stimuli/Experimental_stims/localizer/faces/christian-ferrer-8vT-DgHZDG4-unsplash.jpg","","602371","1","faces","","1","1","0","400","55400","416","57906","","","","","","","","","","","","","","","","","","","","","","","","","","","","","","","","","","","","","","","","","","","","","","","","","","","","",""
"","iti_localizer","","html-keyboard-response","166","603103","0.0-2.0-48.0-1.0","32","64185","Female","null","","","","null","","46","","","","602787","1","","","","","","300","55800","316","58322","300","","","","","","","","","","","","","","","","","","","","","","","","","","","","","","","","","","","","","","","","","","","","","","","","","","","",""
"","localizer","","html-keyboard-response","167","603527","0.0-2.0-49.0-0.0","32","64185","Female","338","","","","75","1","47","","Stimuli/Experimental_stims/localizer/faces/mathias-huysmans-U4JDjYmjn1g-unsplash.jpg","","603103","1","faces","","0","0","0","400","56100","424","58638","","","","","","","","","","","","","","","","","","","","","","","","","","","","","","","","","","","","","","","","","","","","","","","","","","","","",""
"","iti_localizer","","html-keyboard-response","168","603839","0.0-2.0-49.0-1.0","32","64185","Female","null","","","","null","","47","","","","603527","1","","","","","","300","56500","312","59062","300","","","","","","","","","","","","","","","","","","","","","","","","","","","","","","","","","","","","","","","","","","","","","","","","","","","",""
"","localizer","","html-keyboard-response","169","604346","0.0-2.0-50.0-0.0","32","64185","Female","36","","","","75","1","48","","Stimuli/Experimental_stims/localizer/faces/filipe-almeida-mnEWC72eWDM-unsplash.jpg","","603839","1","faces","","0","0","0","400","56800","507","59374","","","","","","","","","","","","","","","","","","","","","","","","","","","","","","","","","","","","","","","","","","","","","","","","","","","","",""
"","iti_localizer","","html-keyboard-response","170","604660","0.0-2.0-50.0-1.0","32","64185","Female","null","","","","null","","48","","","","604346","1","","","","","","300","57200","314","59881","300","","","","","","","","","","","","","","","","","","","","","","","","","","","","","","","","","","","","","","","","","","","","","","","","","","","",""
"","localizer","","html-keyboard-response","171","605082","0.0-2.0-51.0-0.0","32","64185","Female","124","","","","75","1","49","","Stimuli/Experimental_stims/localizer/faces/midas-hofstra-tidSLv-UaNs-unsplash.jpg","","604660","1","faces","","0","0","0","400","57500","422","60195","","","","","","","","","","","","","","","","","","","","","","","","","","","","","","","","","","","","","","","","","","","","","","","","","","","","",""
"","iti_localizer","","html-keyboard-response","172","605397","0.0-2.0-51.0-1.0","32","64185","Female","null","","","","null","","49","","","","605082","1","","","","","","300","57900","315","60617","300","","","","","","","","","","","","","","","","","","","","","","","","","","","","","","","","","","","","","","","","","","","","","","","","","","","",""
"","localizer","","html-keyboard-response","173","605808","0.0-2.0-52.0-0.0","32","64185","Female","7","","","","68","0","50","","Stimuli/Experimental_stims/localizer/faces/darshan-patel-QJEVpydulGs-unsplash.jpg","","605397","1","faces","","0","0","1","400","58200","411","60932","","","","","","","","","","","","","","","","","","","","","","","","","","","","","","","","","","","","","","","","","","","","","","","","","","","","",""
"","iti_localizer","","html-keyboard-response","174","606198","0.0-2.0-52.0-1.0","32","64185","Female","null","","","","null","","50","","","","605808","1","","","","","","300","58600","390","61343","300","","","","","","","","","","","","","","","","","","","","","","","","","","","","","","","","","","","","","","","","","","","","","","","","","","","",""
"","localizer","","html-keyboard-response","175","606616","0.0-2.0-53.0-0.0","32","64185","Female","3","","","","68","0","51","","Stimuli/Experimental_stims/localizer/faces/ivan-dodig-R21SyyJDFgc-unsplash.jpg","","606198","1","faces","","0","0","1","400","58900","418","61733","","","","","","","","","","","","","","","","","","","","","","","","","","","","","","","","","","","","","","","","","","","","","","","","","","","","",""
"","iti_localizer","","html-keyboard-response","176","606995","0.0-2.0-53.0-1.0","32","64185","Female","null","","","","null","","51","","","","606616","1","","","","","","300","59300","379","62151","300","","","","","","","","","","","","","","","","","","","","","","","","","","","","","","","","","","","","","","","","","","","","","","","","","","","",""
"","localizer","","html-keyboard-response","177","607409","0.0-2.0-54.0-0.0","32","64185","Female","49","","","","68","0","52","","Stimuli/Experimental_stims/localizer/faces/austin-wade-X6Uj51n5CE8-unsplash.jpg","","606995","1","faces","","0","0","1","400","59600","414","62530","","","","","","","","","","","","","","","","","","","","","","","","","","","","","","","","","","","","","","","","","","","","","","","","","","","","",""
"","iti_localizer","","html-keyboard-response","178","607718","0.0-2.0-54.0-1.0","32","64185","Female","null","","","","null","","52","","","","607409","1","","","","","","300","60000","309","62944","300","","","","","","","","","","","","","","","","","","","","","","","","","","","","","","","","","","","","","","","","","","","","","","","","","","","",""
"","localizer","","html-keyboard-response","179","608133","0.0-2.0-55.0-0.0","32","64185","Female","37","","","","68","0","53","","Stimuli/Experimental_stims/localizer/faces/linkedin-sales-solutions-pAtA8xe_iVM-unsplash.jpg","","607718","1","faces","","0","0","1","400","60300","415","63253","","","","","","","","","","","","","","","","","","","","","","","","","","","","","","","","","","","","","","","","","","","","","","","","","","","","",""
"","iti_localizer","","html-keyboard-response","180","608453","0.0-2.0-55.0-1.0","32","64185","Female","null","","","","null","","53","","","","608133","1","","","","","","300","60700","320","63668","300","","","","","","","","","","","","","","","","","","","","","","","","","","","","","","","","","","","","","","","","","","","","","","","","","","","",""
"","localizer","","html-keyboard-response","181","608864","0.0-2.0-56.0-0.0","32","64185","Female","198","","","","68","0","54","","Stimuli/Experimental_stims/localizer/faces/pavel-anoshin-d0peGya6R5Y-unsplash.jpg","","608453","1","faces","","0","0","1","400","61000","411","63988","","","","","","","","","","","","","","","","","","","","","","","","","","","","","","","","","","","","","","","","","","","","","","","","","","","","",""
"","iti_localizer","","html-keyboard-response","182","609191","0.0-2.0-56.0-1.0","32","64185","Female","null","","","","null","","54","","","","608864","1","","","","","","300","61400","327","64399","300","","","","","","","","","","","","","","","","","","","","","","","","","","","","","","","","","","","","","","","","","","","","","","","","","","","",""
"","localizer","","html-keyboard-response","183","609610","0.0-2.0-57.0-0.0","32","64185","Female","39","","","","68","0","55","","Stimuli/Experimental_stims/localizer/faces/jeffery-erhunse-vp9mRauo68c-unsplash.jpg","","609191","1","faces","","0","0","1","400","61700","419","64726","","","","","","","","","","","","","","","","","","","","","","","","","","","","","","","","","","","","","","","","","","","","","","","","","","","","",""
"","iti_localizer","","html-keyboard-response","184","609924","0.0-2.0-57.0-1.0","32","64185","Female","null","","","","null","","55","","","","609610","1","","","","","","300","62100","314","65145","300","","","","","","","","","","","","","","","","","","","","","","","","","","","","","","","","","","","","","","","","","","","","","","","","","","","",""
"","localizer","","html-keyboard-response","185","610345","0.0-2.0-58.0-0.0","32","64185","Female","NaN","","","","null","NaN","56","","Stimuli/Experimental_stims/localizer/faces/aatik-tasneem-7omHUGhhmZ0-unsplash.jpg","","609924","1","faces","","0","1","0","400","62400","421","65459","","","","","","","","","","","","","","","","","","","","","","","","","","","","","","","","","","","","","","","","","","","","","","","","","","","","",""
"","iti_localizer","","html-keyboard-response","186","610683","0.0-2.0-58.0-1.0","32","64185","Female","null","","","","null","","56","","","","610345","1","","","","","","300","62800","338","65880","300","","","","","","","","","","","","","","","","","","","","","","","","","","","","","","","","","","","","","","","","","","","","","","","","","","","",""
"","localizer","","html-keyboard-response","187","611104","0.0-2.0-59.0-0.0","32","64185","Female","203","","","","68","0","57","","Stimuli/Experimental_stims/localizer/faces/abstral-official-cyOKLSgkgCE-unsplash.jpg","","610683","1","faces","","0","0","1","400","63100","421","66218","","","","","","","","","","","","","","","","","","","","","","","","","","","","","","","","","","","","","","","","","","","","","","","","","","","","",""
"","iti_localizer","","html-keyboard-response","188","611424","0.0-2.0-59.0-1.0","32","64185","Female","null","","","","null","","57","","","","611104","1","","","","","","300","63500","320","66639","300","","","","","","","","","","","","","","","","","","","","","","","","","","","","","","","","","","","","","","","","","","","","","","","","","","","",""
"","localizer","","html-keyboard-response","189","611847","0.0-2.0-60.0-0.0","32","64185","Female","55","","","","68","0","58","","Stimuli/Experimental_stims/localizer/faces/brooke-cagle-Nm70URdtf3c-unsplash (1).jpg","","611424","1","faces","","0","0","1","400","63800","423","66959","","","","","","","","","","","","","","","","","","","","","","","","","","","","","","","","","","","","","","","","","","","","","","","","","","","","",""
"","iti_localizer","","html-keyboard-response","190","612186","0.0-2.0-60.0-1.0","32","64185","Female","null","","","","null","","58","","","","611847","1","","","","","","300","64200","339","67382","300","","","","","","","","","","","","","","","","","","","","","","","","","","","","","","","","","","","","","","","","","","","","","","","","","","","",""
"","localizer","","html-keyboard-response","191","612602","0.0-2.0-61.0-0.0","32","64185","Female","93","","","","68","0","59","","Stimuli/Experimental_stims/localizer/faces/icons8-team-6LZuSzSwso0-unsplash.jpg","","612186","1","faces","","0","0","1","400","64500","416","67721","","","","","","","","","","","","","","","","","","","","","","","","","","","","","","","","","","","","","","","","","","","","","","","","","","","","",""
"","iti_localizer","","html-keyboard-response","192","612921","0.0-2.0-61.0-1.0","32","64185","Female","null","","","","null","","59","","","","612602","1","","","","","","300","64900","319","68137","300","","","","","","","","","","","","","","","","","","","","","","","","","","","","","","","","","","","","","","","","","","","","","","","","","","","",""
"","localizer","","html-keyboard-response","193","613341","0.0-2.0-62.0-0.0","32","64185","Female","1","","","","68","0","60","","Stimuli/Experimental_stims/localizer/faces/christina-wocintechchat-com-0Zx1bDv5BNY-unsplash.jpg","","612921","1","faces","","0","0","1","400","65200","420","68456","","","","","","","","","","","","","","","","","","","","","","","","","","","","","","","","","","","","","","","","","","","","","","","","","","","","",""
"","iti_localizer","","html-keyboard-response","194","613665","0.0-2.0-62.0-1.0","32","64185","Female","null","","","","null","","60","","","","613341","1","","","","","","300","65600","324","68876","300","","","","","","","","","","","","","","","","","","","","","","","","","","","","","","","","","","","","","","","","","","","","","","","","","","","",""
"","localizer","","html-keyboard-response","195","614482","0.0-2.0-63.0-0.0","32","64185","Female","42","","","","68","0","61","","Stimuli/Experimental_stims/localizer/faces/juan-encalada-WC7KIHo13Fc-unsplash.jpg","","613665","1","faces","","0","0","1","400","65900","817","69200","","","","","","","","","","","","","","","","","","","","","","","","","","","","","","","","","","","","","","","","","","","","","","","","","","","","",""
"","iti_localizer","","html-keyboard-response","196","614801","0.0-2.0-63.0-1.0","32","64185","Female","null","","","","null","","61","","","","614482","1","","","","","","300","66300","319","70017","300","","","","","","","","","","","","","","","","","","","","","","","","","","","","","","","","","","","","","","","","","","","","","","","","","","","",""
"","localizer","","html-keyboard-response","197","615228","0.0-2.0-64.0-0.0","32","64185","Female","NaN","","","","null","NaN","62","","Stimuli/Experimental_stims/localizer/faces/nick-karvounis-JyO_szjGvUw-unsplash.jpg","","614801","1","faces","","0","1","0","400","66600","427","70336","","","","","","","","","","","","","","","","","","","","","","","","","","","","","","","","","","","","","","","","","","","","","","","","","","","","",""
"","iti_localizer","","html-keyboard-response","198","615542","0.0-2.0-64.0-1.0","32","64185","Female","null","","","","null","","62","","","","615228","1","","","","","","300","67000","314","70763","300","","","","","","","","","","","","","","","","","","","","","","","","","","","","","","","","","","","","","","","","","","","","","","","","","","","",""
"","localizer","","html-keyboard-response","199","615965","0.0-2.0-65.0-0.0","32","64185","Female","268","","","","68","0","63","","Stimuli/Experimental_stims/localizer/faces/carlos-vaz-KP4bxnxAilU-unsplash.jpg","","615542","1","faces","","0","0","1","400","67300","423","71077","","","","","","","","","","","","","","","","","","","","","","","","","","","","","","","","","","","","","","","","","","","","","","","","","","","","",""
"","iti_localizer","","html-keyboard-response","200","616282","0.0-2.0-65.0-1.0","32","64185","Female","null","","","","null","","63","","","","615965","1","","","","","","300","67700","317","71500","300","","","","","","","","","","","","","","","","","","","","","","","","","","","","","","","","","","","","","","","","","","","","","","","","","","","",""
"","localizer","","html-keyboard-response","201","616708","0.0-2.0-66.0-0.0","32","64185","Female","413","","","","68","0","64","","Stimuli/Experimental_stims/localizer/faces/tyler-nix-ZGa9d1a_4tA-unsplash.jpg","","616282","1","faces","","1","0","0","400","68000","426","71817","","","","","","","","","","","","","","","","","","","","","","","","","","","","","","","","","","","","","","","","","","","","","","","","","","","","",""
"","iti_localizer","","html-keyboard-response","202","617027","0.0-2.0-66.0-1.0","32","64185","Female","null","","","","null","","64","","","","616708","1","","","","","","300","68400","319","72243","300","","","","","","","","","","","","","","","","","","","","","","","","","","","","","","","","","","","","","","","","","","","","","","","","","","","",""
"","localizer","","html-keyboard-response","203","617441","0.0-2.0-67.0-0.0","32","64185","Female","35","","","","68","0","65","","Stimuli/Experimental_stims/localizer/faces/samuel-dixon--fQ5XNOcqFQ-unsplash.jpg","","617027","1","faces","","0","0","1","400","68700","414","72562","","","","","","","","","","","","","","","","","","","","","","","","","","","","","","","","","","","","","","","","","","","","","","","","","","","","",""
"","iti_localizer","","html-keyboard-response","204","631462","0.0-2.0-67.0-1.0","32","64185","Female","null","","","","null","","65","","","","617441","1","","","","","","14000","69100","14021","72976","14000","","","","","","","","","","","","","","","","","","","","","","","","","","","","","","","","","","","","","","","","","","","","","","","","","","","",""
"","localizer","","html-keyboard-response","205","631881","0.0-2.0-68.0-0.0","32","64185","Female","NaN","","","","null","NaN","66","","Stimuli/Experimental_stims/localizer/body_parts/nihal-karkala-LlOfbQD-IJ0-unsplash.jpg","","631462","1","body_parts","","1","1","0","400","83100","419","86997","","","","","","","","","","","","","","","","","","","","","","","","","","","","","","","","","","","","","","","","","","","","","","","","","","","","",""
"","iti_localizer","","html-keyboard-response","206","632230","0.0-2.0-68.0-1.0","32","64185","Female","null","","","","null","","66","","","","631881","1","","","","","","300","83500","349","87416","300","","","","","","","","","","","","","","","","","","","","","","","","","","","","","","","","","","","","","","","","","","","","","","","","","","","",""
"","localizer","","html-keyboard-response","207","632661","0.0-2.0-69.0-0.0","32","64185","Female","NaN","","","","null","NaN","67","","Stimuli/Experimental_stims/localizer/body_parts/nick-page-WTNmgJtwzGI-unsplash.jpg","","632230","1","body_parts","","0","1","0","400","83800","431","87765","","","","","","","","","","","","","","","","","","","","","","","","","","","","","","","","","","","","","","","","","","","","","","","","","","","","",""
"","iti_localizer","","html-keyboard-response","208","632977","0.0-2.0-69.0-1.0","32","64185","Female","null","","","","null","","67","","","","632661","1","","","","","","300","84200","316","88196","300","","","","","","","","","","","","","","","","","","","","","","","","","","","","","","","","","","","","","","","","","","","","","","","","","","","",""
"","localizer","","html-keyboard-response","209","633400","0.0-2.0-70.0-0.0","32","64185","Female","NaN","","","","null","NaN","68","","Stimuli/Experimental_stims/localizer/body_parts/sina-rezakhani-d1gQi0Jl05U-unsplash (1).jpg","","632977","1","body_parts","","0","1","0","400","84500","423","88512","","","","","","","","","","","","","","","","","","","","","","","","","","","","","","","","","","","","","","","","","","","","","","","","","","","","",""
"","iti_localizer","","html-keyboard-response","210","633718","0.0-2.0-70.0-1.0","32","64185","Female","null","","","","null","","68","","","","633400","1","","","","","","300","84900","318","88935","300","","","","","","","","","","","","","","","","","","","","","","","","","","","","","","","","","","","","","","","","","","","","","","","","","","","",""
"","localizer","","html-keyboard-response","211","634158","0.0-2.0-71.0-0.0","32","64185","Female","NaN","","","","null","NaN","69","","Stimuli/Experimental_stims/localizer/body_parts/meghan-thompson-U1b8OB0QpIo-unsplash.jpg","","633718","1","body_parts","","0","1","0","400","85200","440","89253","","","","","","","","","","","","","","","","","","","","","","","","","","","","","","","","","","","","","","","","","","","","","","","","","","","","",""
"","iti_localizer","","html-keyboard-response","212","634483","0.0-2.0-71.0-1.0","32","64185","Female","null","","","","null","","69","","","","634158","1","","","","","","300","85600","325","89693","300","","","","","","","","","","","","","","","","","","","","","","","","","","","","","","","","","","","","","","","","","","","","","","","","","","","",""
"","localizer","","html-keyboard-response","213","634893","0.0-2.0-72.0-0.0","32","64185","Female","39","","","","68","0","70","","Stimuli/Experimental_stims/localizer/body_parts/davidcohen-qghuLqyh3nE-unsplash.jpg","","634483","1","body_parts","","0","0","1","400","85900","410","90018","","","","","","","","","","","","","","","","","","","","","","","","","","","","","","","","","","","","","","","","","","","","","","","","","","","","",""
"","iti_localizer","","html-keyboard-response","214","635202","0.0-2.0-72.0-1.0","32","64185","Female","null","","","","null","","70","","","","634893","1","","","","","","300","86300","309","90428","300","","","","","","","","","","","","","","","","","","","","","","","","","","","","","","","","","","","","","","","","","","","","","","","","","","","",""
"","localizer","","html-keyboard-response","215","635620","0.0-2.0-73.0-0.0","32","64185","Female","235","","","","68","0","71","","Stimuli/Experimental_stims/localizer/body_parts/sincerely-media-QyzlAZjm0r0-unsplash.jpg","","635202","1","body_parts","","0","0","1","400","86600","418","90737","","","","","","","","","","","","","","","","","","","","","","","","","","","","","","","","","","","","","","","","","","","","","","","","","","","","",""
"","iti_localizer","","html-keyboard-response","216","635941","0.0-2.0-73.0-1.0","32","64185","Female","null","","","","null","","71","","","","635620","1","","","","","","300","87000","321","91155","300","","","","","","","","","","","","","","","","","","","","","","","","","","","","","","","","","","","","","","","","","","","","","","","","","","","",""
"","localizer","","html-keyboard-response","217","636454","0.0-2.0-74.0-0.0","32","64185","Female","9","","","","68","0","72","","Stimuli/Experimental_stims/localizer/body_parts/juja-han-Z8-6EI2tYtw-unsplash.jpg","","635941","1","body_parts","","0","0","1","400","87300","513","91476","","","","","","","","","","","","","","","","","","","","","","","","","","","","","","","","","","","","","","","","","","","","","","","","","","","","",""
"","iti_localizer","","html-keyboard-response","218","636776","0.0-2.0-74.0-1.0","32","64185","Female","null","","","","null","","72","","","","636454","1","","","","","","300","87700","322","91989","300","","","","","","","","","","","","","","","","","","","","","","","","","","","","","","","","","","","","","","","","","","","","","","","","","","","",""
"","localizer","","html-keyboard-response","219","637200","0.0-2.0-75.0-0.0","32","64185","Female","153","","","","68","0","73","","Stimuli/Experimental_stims/localizer/body_parts/natalie-grainger-8uB5kFKWWkk-unsplash.jpg","","636776","1","body_parts","","0","0","1","400","88000","424","92311","","","","","","","","","","","","","","","","","","","","","","","","","","","","","","","","","","","","","","","","","","","","","","","","","","","","",""
"","iti_localizer","","html-keyboard-response","220","637514","0.0-2.0-75.0-1.0","32","64185","Female","null","","","","null","","73","","","","637200","1","","","","","","300","88400","314","92735","300","","","","","","","","","","","","","","","","","","","","","","","","","","","","","","","","","","","","","","","","","","","","","","","","","","","",""
"","localizer","","html-keyboard-response","221","637925","0.0-2.0-76.0-0.0","32","64185","Female","228","","","","68","0","74","","Stimuli/Experimental_stims/localizer/body_parts/debby-hudson--B_757qSA4k-unsplash.jpg","","637514","1","body_parts","","0","0","1","400","88700","411","93049","","","","","","","","","","","","","","","","","","","","","","","","","","","","","","","","","","","","","","","","","","","","","","","","","","","","",""
"","iti_localizer","","html-keyboard-response","222","638246","0.0-2.0-76.0-1.0","32","64185","Female","null","","","","null","","74","","","","637925","1","","","","","","300","89100","321","93460","300","","","","","","","","","","","","","","","","","","","","","","","","","","","","","","","","","","","","","","","","","","","","","","","","","","","",""
"","localizer","","html-keyboard-response","223","638665","0.0-2.0-77.0-0.0","32","64185","Female","261","","","","68","0","75","","Stimuli/Experimental_stims/localizer/body_parts/pure-julia-E9Q4bqYHtIM-unsplash.jpg","","638246","1","body_parts","","0","0","1","400","89400","419","93781","","","","","","","","","","","","","","","","","","","","","","","","","","","","","","","","","","","","","","","","","","","","","","","","","","","","",""
"","iti_localizer","","html-keyboard-response","224","638986","0.0-2.0-77.0-1.0","32","64185","Female","null","","","","null","","75","","","","638665","1","","","","","","300","89800","321","94200","300","","","","","","","","","","","","","","","","","","","","","","","","","","","","","","","","","","","","","","","","","","","","","","","","","","","",""
"","localizer","","html-keyboard-response","225","639403","0.0-2.0-78.0-0.0","32","64185","Female","227","","","","68","0","76","","Stimuli/Experimental_stims/localizer/body_parts/charles-etoroma-1fo0biloDOc-unsplash.jpg","","638986","1","body_parts","","0","0","1","400","90100","417","94521","","","","","","","","","","","","","","","","","","","","","","","","","","","","","","","","","","","","","","","","","","","","","","","","","","","","",""
"","iti_localizer","","html-keyboard-response","226","639723","0.0-2.0-78.0-1.0","32","64185","Female","null","","","","null","","76","","","","639403","1","","","","","","300","90500","320","94938","300","","","","","","","","","","","","","","","","","","","","","","","","","","","","","","","","","","","","","","","","","","","","","","","","","","","",""
"","localizer","","html-keyboard-response","227","640147","0.0-2.0-79.0-0.0","32","64185","Female","209","","","","68","0","77","","Stimuli/Experimental_stims/localizer/body_parts/david-fanuel-qnV8X7OViNY-unsplash.jpg","","639723","1","body_parts","","0","0","1","400","90800","424","95258","","","","","","","","","","","","","","","","","","","","","","","","","","","","","","","","","","","","","","","","","","","","","","","","","","","","",""
"","iti_localizer","","html-keyboard-response","228","640459","0.0-2.0-79.0-1.0","32","64185","Female","null","","","","null","","77","","","","640147","1","","","","","","300","91200","312","95682","300","","","","","","","","","","","","","","","","","","","","","","","","","","","","","","","","","","","","","","","","","","","","","","","","","","","",""
"","localizer","","html-keyboard-response","229","641027","0.0-2.0-80.0-0.0","32","64185","Female","241","","","","68","0","78","","Stimuli/Experimental_stims/localizer/body_parts/diana-polekhina-SwWjCbIIoFE-unsplash.jpg","","640459","1","body_parts","","0","0","1","400","91500","568","95994","","","","","","","","","","","","","","","","","","","","","","","","","","","","","","","","","","","","","","","","","","","","","","","","","","","","",""
"","iti_localizer","","html-keyboard-response","230","641349","0.0-2.0-80.0-1.0","32","64185","Female","null","","","","null","","78","","","","641027","1","","","","","","300","91900","322","96562","300","","","","","","","","","","","","","","","","","","","","","","","","","","","","","","","","","","","","","","","","","","","","","","","","","","","",""
"","localizer","","html-keyboard-response","231","641775","0.0-2.0-81.0-0.0","32","64185","Female","NaN","","","","null","NaN","79","","Stimuli/Experimental_stims/localizer/body_parts/ant-rozetsky-bXQd8JXx0vs-unsplash.jpg","","641349","1","body_parts","","0","1","0","400","92200","426","96884","","","","","","","","","","","","","","","","","","","","","","","","","","","","","","","","","","","","","","","","","","","","","","","","","","","","",""
"","iti_localizer","","html-keyboard-response","232","642465","0.0-2.0-81.0-1.0","32","64185","Female","null","","","","null","","79","","","","641775","1","","","","","","300","92600","690","97310","300","","","","","","","","","","","","","","","","","","","","","","","","","","","","","","","","","","","","","","","","","","","","","","","","","","","",""
"","localizer","","html-keyboard-response","233","642894","0.0-2.0-82.0-0.0","32","64185","Female","201","","","","68","0","80","","Stimuli/Experimental_stims/localizer/body_parts/callum-skelton-3KLMq7y46nA-unsplash.jpg","","642465","1","body_parts","","0","0","1","400","92900","429","98000","","","","","","","","","","","","","","","","","","","","","","","","","","","","","","","","","","","","","","","","","","","","","","","","","","","","",""
"","iti_localizer","","html-keyboard-response","234","643212","0.0-2.0-82.0-1.0","32","64185","Female","null","","","","null","","80","","","","642894","1","","","","","","300","93300","318","98429","300","","","","","","","","","","","","","","","","","","","","","","","","","","","","","","","","","","","","","","","","","","","","","","","","","","","",""
"","localizer","","html-keyboard-response","235","643636","0.0-2.0-83.0-0.0","32","64185","Female","NaN","","","","null","NaN","81","","Stimuli/Experimental_stims/localizer/body_parts/freestocks-qw9LFf5T790-unsplash.jpg","","643212","1","body_parts","","0","1","0","400","93600","424","98747","","","","","","","","","","","","","","","","","","","","","","","","","","","","","","","","","","","","","","","","","","","","","","","","","","","","",""
"","iti_localizer","","html-keyboard-response","236","643999","0.0-2.0-83.0-1.0","32","64185","Female","null","","","","null","","81","","","","643636","1","","","","","","300","94000","363","99171","300","","","","","","","","","","","","","","","","","","","","","","","","","","","","","","","","","","","","","","","","","","","","","","","","","","","",""
"","localizer","","html-keyboard-response","237","644458","0.0-2.0-84.0-0.0","32","64185","Female","178","","","","68","0","82","","Stimuli/Experimental_stims/localizer/body_parts/carlos-henrique-NAOJKwZswbs-unsplash.jpg","","643999","1","body_parts","","0","0","1","400","94300","459","99534","","","","","","","","","","","","","","","","","","","","","","","","","","","","","","","","","","","","","","","","","","","","","","","","","","","","",""
"","iti_localizer","","html-keyboard-response","238","644783","0.0-2.0-84.0-1.0","32","64185","Female","null","","","","null","","82","","","","644458","1","","","","","","300","94700","325","99993","300","","","","","","","","","","","","","","","","","","","","","","","","","","","","","","","","","","","","","","","","","","","","","","","","","","","",""
"","localizer","","html-keyboard-response","239","645206","0.0-2.0-85.0-0.0","32","64185","Female","30","","","","68","0","83","","Stimuli/Experimental_stims/localizer/body_parts/boyd-christiansen-uVj7kewrZ-o-unsplash.jpg","","644783","1","body_parts","","1","0","0","400","95000","423","100318","","","","","","","","","","","","","","","","","","","","","","","","","","","","","","","","","","","","","","","","","","","","","","","","","","","","",""
"","iti_localizer","","html-keyboard-response","240","645522","0.0-2.0-85.0-1.0","32","64185","Female","null","","","","null","","83","","","","645206","1","","","","","","300","95400","316","100741","300","","","","","","","","","","","","","","","","","","","","","","","","","","","","","","","","","","","","","","","","","","","","","","","","","","","",""
"","localizer","","html-keyboard-response","241","646066","0.0-2.0-86.0-0.0","32","64185","Female","64","","","","68","0","84","","Stimuli/Experimental_stims/localizer/body_parts/nick-page-jAGdpOGvLAA-unsplash.jpg","","645522","1","body_parts","","0","0","1","400","95700","544","101057","","","","","","","","","","","","","","","","","","","","","","","","","","","","","","","","","","","","","","","","","","","","","","","","","","","","",""
"","iti_localizer","","html-keyboard-response","242","646399","0.0-2.0-86.0-1.0","32","64185","Female","null","","","","null","","84","","","","646066","1","","","","","","300","96100","333","101601","300","","","","","","","","","","","","","","","","","","","","","","","","","","","","","","","","","","","","","","","","","","","","","","","","","","","",""
"","localizer","","html-keyboard-response","243","646815","0.0-2.0-87.0-0.0","32","64185","Female","175","","","","68","0","85","","Stimuli/Experimental_stims/localizer/body_parts/lilartsy-1KkhQ8uL28g-unsplash.jpg","","646399","1","body_parts","","0","0","1","400","96400","416","101934","","","","","","","","","","","","","","","","","","","","","","","","","","","","","","","","","","","","","","","","","","","","","","","","","","","","",""
"","iti_localizer","","html-keyboard-response","244","660832","0.0-2.0-87.0-1.0","32","64185","Female","null","","","","null","","85","","","","646815","1","","","","","","14000","96800","14017","102350","14000","","","","","","","","","","","","","","","","","","","","","","","","","","","","","","","","","","","","","","","","","","","","","","","","","","","",""
"","localizer","","html-keyboard-response","245","661259","0.0-2.0-88.0-0.0","32","64185","Female","NaN","","","","null","NaN","86","","Stimuli/Experimental_stims/localizer/objects/yossy-made-yulian-WaEqwDSIeTY-unsplash.jpg","","660832","1","objects","","1","1","0","400","110800","427","116367","","","","","","","","","","","","","","","","","","","","","","","","","","","","","","","","","","","","","","","","","","","","","","","","","","","","",""
