"success","ttype","start_time","trial_type","trial_index","time_elapsed","internal_node_id","age","PID","gender","rt","responses","view_history","repeat_instructions","key_press","response","index","stimulus_index","path","start_time_elapsed","run","task","isi","is_odd_ball","no_response","acc","duration","onset","duration_time_elapsed","onset_time_elapsed","trial_duration","left_chosen","chosen_stimulus","unchosen_stimulus","chosen_category","unchosen_category","chosen_rating","unchosen_rating","chosen_path","unchosen_path","pair_id","practice","scramble_screen_time","scramble_instructed_side","stim_type","iti","block","left_stimulus","right_stimulus","left_category","right_category","left_path","right_path","left_rating","right_rating","scramble_acc","scramble_no_response","warning","stimulus_id","item_id","outcome","response_rt","deliberation_reward_tally","choice_type","gain_left","left_item_id","right_item_id","higher_outcome_chosen","chosen_left","old_pair","pair_type","old_response","pair_acc","reward_type","outcome_response","outcome_rt","outcome_acc","category","choice","deliberated_stim","old_rating","new_rating","total_reward_tally"
"true","full_screen","d08162023hr1934","fullscreen","0","10959","0.0-0.0-0.0","29","39781","female","","","","","","","","","","","","","","","","","","","","","","","","","","","","","","","","","","","","","","","","","","","","","","","","","","","","","","","","","","","","","","","","","","","","","","","","",""
"","get_id","","survey-text","1","19415","0.0-0.0-1.0","29","39781","female","8453","{""Q0"":""29"",""Q1"":""female""}","","","","","","","","","","","","","","","","","","","","","","","","","","","","","","","","","","","","","","","","","","","","","","","","","","","","","","","","","","","","","","","","","","","","","","",""
"","ratings_instructions","","instructions","2","27264","0.0-1.0-0.0-0.0","29","39781","female","7605","","[{""page_index"":0,""viewing_time"":6157},{""page_index"":1,""viewing_time"":1448}]","","","","","","","","","","","","","","","","","","","","","","","","","","","","","","","","","","","","","","","","","","","","","","","","","","","","","","","","","","","","","","","","","","","","","",""
"","rating_comprehension_check","","survey-multi-choice","3","31000","0.0-1.0-0.0-1.0","29","39781","female","3733","{""Q0"":""True"",""Q1"":""Mouse""}","","0","","","","","","","","","","","","","","","","","","","","","","","","","","","","","","","","","","","","","","","","","","","","","","","","","","","","","","","","","","","","","","","","","","","","",""
"","","","html-keyboard-response","4","32729","0.0-1.0-1.0","29","39781","female","1725","","","","68","","","","","","","","","","","","","","","","","","","","","","","","","","","","","","","","","","","","","","","","","","","","","","","","","","","","","","","","","","","","","","","","","","","",""
"","rating","","html-slider-response","5","35201","0.0-1.0-2.0","29","39781","female","2470","","","","","61","0","28","Stimuli/Experimental_stims/body_parts/ira-vishnevskaya-8DQAvdCby1I-unsplash.jpg","","","","","","","","","","","","","","","","","","","","","","","","","","","","","","","","","","","","","","","","","","","","","","","","","","","","","","","","","","","","","","","",""
"","rating","","html-slider-response","6","37089","0.0-1.0-3.0","29","39781","female","1885","","","","","89","1","4","Stimuli/Experimental_stims/outdoor_scenes/jarrett-kow-1ZOyYPOBn7I-unsplash.jpg","","","","","","","","","","","","","","","","","","","","","","","","","","","","","","","","","","","","","","","","","","","","","","","","","","","","","","","","","","","","","","","",""
"","rating","","html-slider-response","7","39777","0.0-1.0-4.0","29","39781","female","2685","","","","","44","2","35","Stimuli/Experimental_stims/body_parts/wc-so-KH4AAPjb-tI-unsplash.jpg","","","","","","","","","","","","","","","","","","","","","","","","","","","","","","","","","","","","","","","","","","","","","","","","","","","","","","","","","","","","","","","",""
"","rating","","html-slider-response","8","42049","0.0-1.0-5.0","29","39781","female","2269","","","","","52","3","47","Stimuli/Experimental_stims/objects/ronaldo-arthur-vidal-Cdz_lvnl37k-unsplash.jpg","","","","","","","","","","","","","","","","","","","","","","","","","","","","","","","","","","","","","","","","","","","","","","","","","","","","","","","","","","","","","","","",""
"","rating","","html-slider-response","9","44530","0.0-1.0-6.0","29","39781","female","2477","","","","","86","4","9","Stimuli/Experimental_stims/outdoor_scenes/sergey-pesterev-y-b_FOmJXdg-unsplash.jpg","","","","","","","","","","","","","","","","","","","","","","","","","","","","","","","","","","","","","","","","","","","","","","","","","","","","","","","","","","","","","","","",""
"","rating","","html-slider-response","10","47146","0.0-1.0-7.0","29","39781","female","2614","","","","","55","5","31","Stimuli/Experimental_stims/body_parts/sincerely-media-VN6DbKajo5s-unsplash.jpg","","","","","","","","","","","","","","","","","","","","","","","","","","","","","","","","","","","","","","","","","","","","","","","","","","","","","","","","","","","","","","","",""
"","rating","","html-slider-response","11","49506","0.0-1.0-8.0","29","39781","female","2357","","","","","67","6","5","Stimuli/Experimental_stims/outdoor_scenes/jeff-king-bJHWJeiHfHc-unsplash.jpg","","","","","","","","","","","","","","","","","","","","","","","","","","","","","","","","","","","","","","","","","","","","","","","","","","","","","","","","","","","","","","","",""
"","rating","","html-slider-response","12","51874","0.0-1.0-9.0","29","39781","female","2365","","","","","49","7","27","Stimuli/Experimental_stims/body_parts/heike-mintel-i_Gns0ELnLw-unsplash.jpg","","","","","","","","","","","","","","","","","","","","","","","","","","","","","","","","","","","","","","","","","","","","","","","","","","","","","","","","","","","","","","","",""
"","rating","","html-slider-response","13","54539","0.0-1.0-10.0","29","39781","female","2662","","","","","57","8","37","Stimuli/Experimental_stims/objects/alexander-andrews-VLGWE_SumrA-unsplash.jpg","","","","","","","","","","","","","","","","","","","","","","","","","","","","","","","","","","","","","","","","","","","","","","","","","","","","","","","","","","","","","","","",""
"","rating","","html-slider-response","14","56195","0.0-1.0-11.0","29","39781","female","1653","","","","","69","9","19","Stimuli/Experimental_stims/faces/joel-mott-LaK153ghdig-unsplash.jpg","","","","","","","","","","","","","","","","","","","","","","","","","","","","","","","","","","","","","","","","","","","","","","","","","","","","","","","","","","","","","","","",""
"","rating","","html-slider-response","15","58716","0.0-1.0-12.0","29","39781","female","2517","","","","","41","10","34","Stimuli/Experimental_stims/body_parts/wagner-santos-mBWMvIuVnso-unsplash.jpg","","","","","","","","","","","","","","","","","","","","","","","","","","","","","","","","","","","","","","","","","","","","","","","","","","","","","","","","","","","","","","","",""
"","rating","","html-slider-response","16","61764","0.0-1.0-13.0","29","39781","female","3046","","","","","50","11","22","Stimuli/Experimental_stims/faces/ravi-patel-VMGAbeeJTKo-unsplash.jpg","","","","","","","","","","","","","","","","","","","","","","","","","","","","","","","","","","","","","","","","","","","","","","","","","","","","","","","","","","","","","","","",""
"","rating","","html-slider-response","17","63780","0.0-1.0-14.0","29","39781","female","2014","","","","","85","12","1","Stimuli/Experimental_stims/outdoor_scenes/ashim-d-silva-S2Q5mdOrrVc-unsplash.jpg","","","","","","","","","","","","","","","","","","","","","","","","","","","","","","","","","","","","","","","","","","","","","","","","","","","","","","","","","","","","","","","",""
"","rating","","html-slider-response","18","67220","0.0-1.0-15.0","29","39781","female","3437","","","","","54","13","15","Stimuli/Experimental_stims/faces/erik-lucatero-d2MSDujJl2g-unsplash.jpg","","","","","","","","","","","","","","","","","","","","","","","","","","","","","","","","","","","","","","","","","","","","","","","","","","","","","","","","","","","","","","","",""
"","rating","","html-slider-response","19","71573","0.0-1.0-16.0","29","39781","female","4350","","","","","78","14","17","Stimuli/Experimental_stims/faces/good-faces-xmSWVeGEnJw-unsplash.jpg","","","","","","","","","","","","","","","","","","","","","","","","","","","","","","","","","","","","","","","","","","","","","","","","","","","","","","","","","","","","","","","",""
"","rating","","html-slider-response","20","74557","0.0-1.0-17.0","29","39781","female","2981","","","","","75","15","12","Stimuli/Experimental_stims/faces/aiony-haust-jmATI5Q_YgY-unsplash.jpg","","","","","","","","","","","","","","","","","","","","","","","","","","","","","","","","","","","","","","","","","","","","","","","","","","","","","","","","","","","","","","","",""
"","rating","","html-slider-response","21","76869","0.0-1.0-18.0","29","39781","female","2309","","","","","82","16","0","Stimuli/Experimental_stims/outdoor_scenes/aleksandra-boguslawska-MS7KD9Ti7FQ-unsplash.jpg","","","","","","","","","","","","","","","","","","","","","","","","","","","","","","","","","","","","","","","","","","","","","","","","","","","","","","","","","","","","","","","",""
"","rating","","html-slider-response","22","79430","0.0-1.0-19.0","29","39781","female","2558","","","","","54","17","41","Stimuli/Experimental_stims/objects/insung-yoon-w2JtIQQXoRU-unsplash.jpg","","","","","","","","","","","","","","","","","","","","","","","","","","","","","","","","","","","","","","","","","","","","","","","","","","","","","","","","","","","","","","","",""
"","rating","","html-slider-response","23","81574","0.0-1.0-20.0","29","39781","female","2141","","","","","62","18","18","Stimuli/Experimental_stims/faces/jessica-radanavong-mrYkTuAesKE-unsplash.jpg","","","","","","","","","","","","","","","","","","","","","","","","","","","","","","","","","","","","","","","","","","","","","","","","","","","","","","","","","","","","","","","",""
"","rating","","html-slider-response","24","83814","0.0-1.0-21.0","29","39781","female","2237","","","","","89","19","11","Stimuli/Experimental_stims/outdoor_scenes/stephen-leonardi-gyIRjKPXupE-unsplash.jpg","","","","","","","","","","","","","","","","","","","","","","","","","","","","","","","","","","","","","","","","","","","","","","","","","","","","","","","","","","","","","","","",""
"","rating","","html-slider-response","25","86246","0.0-1.0-22.0","29","39781","female","2429","","","","","48","20","20","Stimuli/Experimental_stims/faces/justin-chen-J7Cf1Gch49E-unsplash.jpg","","","","","","","","","","","","","","","","","","","","","","","","","","","","","","","","","","","","","","","","","","","","","","","","","","","","","","","","","","","","","","","",""
"","rating","","html-slider-response","26","89231","0.0-1.0-23.0","29","39781","female","2981","","","","","79","21","23","Stimuli/Experimental_stims/faces/rikonavt-HQjfrvdTfak-unsplash.jpg","","","","","","","","","","","","","","","","","","","","","","","","","","","","","","","","","","","","","","","","","","","","","","","","","","","","","","","","","","","","","","","",""
"","rating","","html-slider-response","27","91167","0.0-1.0-24.0","29","39781","female","1934","","","","","29","22","25","Stimuli/Experimental_stims/body_parts/engin-akyurt-Q2rfH3GW39c-unsplash.jpg","","","","","","","","","","","","","","","","","","","","","","","","","","","","","","","","","","","","","","","","","","","","","","","","","","","","","","","","","","","","","","","",""
"","rating","","html-slider-response","28","93343","0.0-1.0-25.0","29","39781","female","2173","","","","","64","23","33","Stimuli/Experimental_stims/body_parts/tucker-good-36skLT5jZcc-unsplash.jpg","","","","","","","","","","","","","","","","","","","","","","","","","","","","","","","","","","","","","","","","","","","","","","","","","","","","","","","","","","","","","","","",""
"","rating","","html-slider-response","29","95799","0.0-1.0-26.0","29","39781","female","2453","","","","","36","24","32","Stimuli/Experimental_stims/body_parts/towfiqu-barbhuiya-3AsiVDsZnHg-unsplash.jpg","","","","","","","","","","","","","","","","","","","","","","","","","","","","","","","","","","","","","","","","","","","","","","","","","","","","","","","","","","","","","","","",""
"","rating","","html-slider-response","30","98024","0.0-1.0-27.0","29","39781","female","2222","","","","","57","25","30","Stimuli/Experimental_stims/body_parts/mika-korhonen-Xodzxosar18-unsplash.jpg","","","","","","","","","","","","","","","","","","","","","","","","","","","","","","","","","","","","","","","","","","","","","","","","","","","","","","","","","","","","","","","",""
"","rating","","html-slider-response","31","100440","0.0-1.0-28.0","29","39781","female","2414","","","","","66","26","16","Stimuli/Experimental_stims/faces/freddy-kearney-o-ioeoATbIM-unsplash.jpg","","","","","","","","","","","","","","","","","","","","","","","","","","","","","","","","","","","","","","","","","","","","","","","","","","","","","","","","","","","","","","","",""
"","rating","","html-slider-response","32","103272","0.0-1.0-29.0","29","39781","female","2829","","","","","45","27","14","Stimuli/Experimental_stims/faces/david-siglin-UuW4psOb388-unsplash.jpg","","","","","","","","","","","","","","","","","","","","","","","","","","","","","","","","","","","","","","","","","","","","","","","","","","","","","","","","","","","","","","","",""
"","rating","","html-slider-response","33","106049","0.0-1.0-30.0","29","39781","female","2773","","","","","73","28","36","Stimuli/Experimental_stims/objects/alexander-andrews-JYGnB9gTCls-unsplash.jpg","","","","","","","","","","","","","","","","","","","","","","","","","","","","","","","","","","","","","","","","","","","","","","","","","","","","","","","","","","","","","","","",""
"","rating","","html-slider-response","34","110177","0.0-1.0-31.0","29","39781","female","4126","","","","","75","29","3","Stimuli/Experimental_stims/outdoor_scenes/henry-be-NLF6hTe4PAg-unsplash.jpg","","","","","","","","","","","","","","","","","","","","","","","","","","","","","","","","","","","","","","","","","","","","","","","","","","","","","","","","","","","","","","","",""
"","rating","","html-slider-response","35","112225","0.0-1.0-32.0","29","39781","female","2045","","","","","63","30","29","Stimuli/Experimental_stims/body_parts/manuel-schinner-ZwjFuJ7ebpk-unsplash.jpg","","","","","","","","","","","","","","","","","","","","","","","","","","","","","","","","","","","","","","","","","","","","","","","","","","","","","","","","","","","","","","","",""
"","rating","","html-slider-response","36","114657","0.0-1.0-33.0","29","39781","female","2429","","","","","57","31","43","Stimuli/Experimental_stims/objects/jonathan-greenaway-Y4hGgeiFn3s-unsplash.jpg","","","","","","","","","","","","","","","","","","","","","","","","","","","","","","","","","","","","","","","","","","","","","","","","","","","","","","","","","","","","","","","",""
"","rating","","html-slider-response","37","117554","0.0-1.0-34.0","29","39781","female","2894","","","","","45","32","40","Stimuli/Experimental_stims/objects/fabian-blank-pElSkGRA2NU-unsplash.jpg","","","","","","","","","","","","","","","","","","","","","","","","","","","","","","","","","","","","","","","","","","","","","","","","","","","","","","","","","","","","","","","",""
"","rating","","html-slider-response","38","119562","0.0-1.0-35.0","29","39781","female","2006","","","","","87","33","2","Stimuli/Experimental_stims/outdoor_scenes/bruno-van-der-kraan-qez8mNJ3ilU-unsplash.jpg","","","","","","","","","","","","","","","","","","","","","","","","","","","","","","","","","","","","","","","","","","","","","","","","","","","","","","","","","","","","","","","",""
"","rating","","html-slider-response","39","122475","0.0-1.0-36.0","29","39781","female","2909","","","","","37","34","26","Stimuli/Experimental_stims/body_parts/engin-akyurt-x_3gyC42btc-unsplash.jpg","","","","","","","","","","","","","","","","","","","","","","","","","","","","","","","","","","","","","","","","","","","","","","","","","","","","","","","","","","","","","","","",""
"","rating","","html-slider-response","40","125211","0.0-1.0-37.0","29","39781","female","2733","","","","","67","35","45","Stimuli/Experimental_stims/objects/leohoho-rngTKHXumy0-unsplash.jpg","","","","","","","","","","","","","","","","","","","","","","","","","","","","","","","","","","","","","","","","","","","","","","","","","","","","","","","","","","","","","","","",""
"","rating","","html-slider-response","41","128235","0.0-1.0-38.0","29","39781","female","3021","","","","","94","36","6","Stimuli/Experimental_stims/outdoor_scenes/meng-ji-8BH_M-53CyA-unsplash.jpg","","","","","","","","","","","","","","","","","","","","","","","","","","","","","","","","","","","","","","","","","","","","","","","","","","","","","","","","","","","","","","","",""
"","rating","","html-slider-response","42","130355","0.0-1.0-39.0","29","39781","female","2117","","","","","66","37","13","Stimuli/Experimental_stims/faces/daniel-rigdon-dXmXKPP2L4E-unsplash.jpg","","","","","","","","","","","","","","","","","","","","","","","","","","","","","","","","","","","","","","","","","","","","","","","","","","","","","","","","","","","","","","","",""
"","rating","","html-slider-response","43","132972","0.0-1.0-40.0","29","39781","female","2613","","","","","47","38","44","Stimuli/Experimental_stims/objects/kuiye-chen-NuOGFo4PudE-unsplash.jpg","","","","","","","","","","","","","","","","","","","","","","","","","","","","","","","","","","","","","","","","","","","","","","","","","","","","","","","","","","","","","","","",""
"","rating","","html-slider-response","44","136612","0.0-1.0-41.0","29","39781","female","3638","","","","","40","39","42","Stimuli/Experimental_stims/objects/jess-bailey-nOeVi8DsN8U-unsplash.jpg","","","","","","","","","","","","","","","","","","","","","","","","","","","","","","","","","","","","","","","","","","","","","","","","","","","","","","","","","","","","","","","",""
"","rating","","html-slider-response","45","139933","0.0-1.0-42.0","29","39781","female","3317","","","","","30","40","24","Stimuli/Experimental_stims/body_parts/clay-banks-LjqARJaJotc-unsplash.jpg","","","","","","","","","","","","","","","","","","","","","","","","","","","","","","","","","","","","","","","","","","","","","","","","","","","","","","","","","","","","","","","",""
"","rating","","html-slider-response","46","143117","0.0-1.0-43.0","29","39781","female","3182","","","","","73","41","21","Stimuli/Experimental_stims/faces/leilani-angel-K84vnnzxmTQ-unsplash.jpg","","","","","","","","","","","","","","","","","","","","","","","","","","","","","","","","","","","","","","","","","","","","","","","","","","","","","","","","","","","","","","","",""
"","rating","","html-slider-response","47","144917","0.0-1.0-44.0","29","39781","female","1797","","","","","89","42","7","Stimuli/Experimental_stims/outdoor_scenes/petr-vysohlid-9fqwGqGLUxc-unsplash.jpg","","","","","","","","","","","","","","","","","","","","","","","","","","","","","","","","","","","","","","","","","","","","","","","","","","","","","","","","","","","","","","","",""
"","rating","","html-slider-response","48","146805","0.0-1.0-45.0","29","39781","female","1885","","","","","42","43","46","Stimuli/Experimental_stims/objects/mockup-graphics-PNsj6RiHAF4-unsplash.jpg","","","","","","","","","","","","","","","","","","","","","","","","","","","","","","","","","","","","","","","","","","","","","","","","","","","","","","","","","","","","","","","",""
"","rating","","html-slider-response","49","149414","0.0-1.0-46.0","29","39781","female","2606","","","","","58","44","38","Stimuli/Experimental_stims/objects/art-lasovsky-8XddFc6NkBY-unsplash.jpg","","","","","","","","","","","","","","","","","","","","","","","","","","","","","","","","","","","","","","","","","","","","","","","","","","","","","","","","","","","","","","","",""
"","rating","","html-slider-response","50","152103","0.0-1.0-47.0","29","39781","female","2685","","","","","82","45","8","Stimuli/Experimental_stims/outdoor_scenes/samsommer-vddccTqwal8-unsplash.jpg","","","","","","","","","","","","","","","","","","","","","","","","","","","","","","","","","","","","","","","","","","","","","","","","","","","","","","","","","","","","","","","",""
"","rating","","html-slider-response","51","154206","0.0-1.0-48.0","29","39781","female","2100","","","","","68","46","10","Stimuli/Experimental_stims/outdoor_scenes/shannon-kunkle-dM8INmkyDas-unsplash.jpg","","","","","","","","","","","","","","","","","","","","","","","","","","","","","","","","","","","","","","","","","","","","","","","","","","","","","","","","","","","","","","","",""
"","rating","","html-slider-response","52","156415","0.0-1.0-49.0","29","39781","female","2206","","","","","54","47","39","Stimuli/Experimental_stims/objects/charlesdeluvio-1-nx1QR5dTE-unsplash.jpg","","","","","","","","","","","","","","","","","","","","","","","","","","","","","","","","","","","","","","","","","","","","","","","","","","","","","","","","","","","","","","","",""
"","localizer_instructions","","instructions","53","175497","0.0-2.0-0.0-0.0","29","39781","female","19059","","[{""page_index"":0,""viewing_time"":9409},{""page_index"":1,""viewing_time"":8737},{""page_index"":2,""viewing_time"":912}]","","","","","","","","","","","","","","","","","","","","","","","","","","","","","","","","","","","","","","","","","","","","","","","","","","","","","","","","","","","","","","","","","","","","","",""
"","localizer_comprehension_check","","survey-multi-choice","54","183890","0.0-2.0-0.0-1.0","29","39781","female","8390","{""Q0"":""True"",""Q1"":""K"",""Q2"":""D""}","","0","","","","","","","","","","","","","","","","","","","","","","","","","","","","","","","","","","","","","","","","","","","","","","","","","","","","","","","","","","","","","","","","","","","","",""
"","","","html-keyboard-response","55","189179","0.0-2.0-1.0","29","39781","female","5285","","","","68","","","","","","","","","","","","","","","","","","","","","","","","","","","","","","","","","","","","","","","","","","","","","","","","","","","","","","","","","","","","","","","","","","","",""
"","localizer","","html-keyboard-response","56","189595","0.0-2.0-2.0-0.0","29","39781","female","NaN","","","","null","NaN","0","","Stimuli/Practice_stims/Localizer/annie-spratt-g9KFpAfQ5bc-unsplash.jpg","189179","0","NaN","","0","1","0","400","0","416","0","","","","","","","","","","","","","","","","","","","","","","","","","","","","","","","","","","","","","","","","","","","","","","","","","","","","",""
"","iti_localizer","","html-keyboard-response","57","189898","0.0-2.0-2.0-1.0","29","39781","female","null","","","","null","","0","","","189595","0","","","","","","300","400","303","416","300","","","","","","","","","","","","","","","","","","","","","","","","","","","","","","","","","","","","","","","","","","","","","","","","","","","",""
"","localizer","","html-keyboard-response","58","190302","0.0-2.0-2.1-0.1","29","39781","female","0","","","","68","0","0","","Stimuli/Practice_stims/Localizer/annie-spratt-g9KFpAfQ5bc-unsplash.jpg","189898","0","NaN","","0","0","1","400","700","404","719","","","","","","","","","","","","","","","","","","","","","","","","","","","","","","","","","","","","","","","","","","","","","","","","","","","","",""
"","iti_localizer","","html-keyboard-response","59","190605","0.0-2.0-2.1-1.1","29","39781","female","null","","","","null","","0","","","190302","0","","","","","","300","1100","303","1123","300","","","","","","","","","","","","","","","","","","","","","","","","","","","","","","","","","","","","","","","","","","","","","","","","","","","",""
"","localizer","","html-keyboard-response","60","191009","0.0-2.0-3.0-0.0","29","39781","female","66","","","","68","0","1","","Stimuli/Practice_stims/Localizer/becca-tapert-sY5RjMB1KkE-unsplash.jpg","190605","0","NaN","","0","0","1","400","1400","404","1426","","","","","","","","","","","","","","","","","","","","","","","","","","","","","","","","","","","","","","","","","","","","","","","","","","","","",""
"","iti_localizer","","html-keyboard-response","61","191311","0.0-2.0-3.0-1.0","29","39781","female","null","","","","null","","1","","","191009","0","","","","","","300","1800","302","1830","300","","","","","","","","","","","","","","","","","","","","","","","","","","","","","","","","","","","","","","","","","","","","","","","","","","","",""
"","localizer","","html-keyboard-response","62","191715","0.0-2.0-4.0-0.0","29","39781","female","NaN","","","","null","NaN","2","","Stimuli/Practice_stims/Localizer/charl-durand-bsfXvI25iNg-unsplash.jpg","191311","0","NaN","","1","1","0","400","2100","404","2132","","","","","","","","","","","","","","","","","","","","","","","","","","","","","","","","","","","","","","","","","","","","","","","","","","","","",""
"","iti_localizer","","html-keyboard-response","63","192018","0.0-2.0-4.0-1.0","29","39781","female","null","","","","null","","2","","","191715","0","","","","","","300","2500","303","2536","300","","","","","","","","","","","","","","","","","","","","","","","","","","","","","","","","","","","","","","","","","","","","","","","","","","","",""
"","localizer","","html-keyboard-response","64","192422","0.0-2.0-4.1-0.1","29","39781","female","NaN","","","","null","NaN","2","","Stimuli/Practice_stims/Localizer/charl-durand-bsfXvI25iNg-unsplash.jpg","192018","0","NaN","","1","1","0","400","2800","404","2839","","","","","","","","","","","","","","","","","","","","","","","","","","","","","","","","","","","","","","","","","","","","","","","","","","","","",""
"","iti_localizer","","html-keyboard-response","65","192726","0.0-2.0-4.1-1.1","29","39781","female","null","","","","null","","2","","","192422","0","","","","","","300","3200","304","3243","300","","","","","","","","","","","","","","","","","","","","","","","","","","","","","","","","","","","","","","","","","","","","","","","","","","","",""
"","localizer","","html-keyboard-response","66","193129","0.0-2.0-4.2-0.2","29","39781","female","NaN","","","","null","NaN","2","","Stimuli/Practice_stims/Localizer/charl-durand-bsfXvI25iNg-unsplash.jpg","192726","0","NaN","","1","1","0","400","3500","403","3547","","","","","","","","","","","","","","","","","","","","","","","","","","","","","","","","","","","","","","","","","","","","","","","","","","","","",""
"","iti_localizer","","html-keyboard-response","67","193433","0.0-2.0-4.2-1.2","29","39781","female","null","","","","null","","2","","","193129","0","","","","","","300","3900","304","3950","300","","","","","","","","","","","","","","","","","","","","","","","","","","","","","","","","","","","","","","","","","","","","","","","","","","","",""
"","localizer","","html-keyboard-response","68","193837","0.0-2.0-4.3-0.3","29","39781","female","NaN","","","","null","NaN","2","","Stimuli/Practice_stims/Localizer/charl-durand-bsfXvI25iNg-unsplash.jpg","193433","0","NaN","","1","1","0","400","4200","404","4254","","","","","","","","","","","","","","","","","","","","","","","","","","","","","","","","","","","","","","","","","","","","","","","","","","","","",""
"","iti_localizer","","html-keyboard-response","69","194141","0.0-2.0-4.3-1.3","29","39781","female","null","","","","null","","2","","","193837","0","","","","","","300","4600","304","4658","300","","","","","","","","","","","","","","","","","","","","","","","","","","","","","","","","","","","","","","","","","","","","","","","","","","","",""
"","localizer","","html-keyboard-response","70","194545","0.0-2.0-4.4-0.4","29","39781","female","NaN","","","","null","NaN","2","","Stimuli/Practice_stims/Localizer/charl-durand-bsfXvI25iNg-unsplash.jpg","194141","0","NaN","","1","1","0","400","4900","404","4962","","","","","","","","","","","","","","","","","","","","","","","","","","","","","","","","","","","","","","","","","","","","","","","","","","","","",""
"","iti_localizer","","html-keyboard-response","71","194847","0.0-2.0-4.4-1.4","29","39781","female","null","","","","null","","2","","","194545","0","","","","","","300","5300","302","5366","300","","","","","","","","","","","","","","","","","","","","","","","","","","","","","","","","","","","","","","","","","","","","","","","","","","","",""
"","localizer","","html-keyboard-response","72","195251","0.0-2.0-4.5-0.5","29","39781","female","NaN","","","","null","NaN","2","","Stimuli/Practice_stims/Localizer/charl-durand-bsfXvI25iNg-unsplash.jpg","194847","0","NaN","","1","1","0","400","5600","404","5668","","","","","","","","","","","","","","","","","","","","","","","","","","","","","","","","","","","","","","","","","","","","","","","","","","","","",""
"","iti_localizer","","html-keyboard-response","73","195554","0.0-2.0-4.5-1.5","29","39781","female","null","","","","null","","2","","","195251","0","","","","","","300","6000","303","6072","300","","","","","","","","","","","","","","","","","","","","","","","","","","","","","","","","","","","","","","","","","","","","","","","","","","","",""
"","localizer","","html-keyboard-response","74","195958","0.0-2.0-4.6-0.6","29","39781","female","NaN","","","","null","NaN","2","","Stimuli/Practice_stims/Localizer/charl-durand-bsfXvI25iNg-unsplash.jpg","195554","0","NaN","","1","1","0","400","6300","404","6375","","","","","","","","","","","","","","","","","","","","","","","","","","","","","","","","","","","","","","","","","","","","","","","","","","","","",""
"","iti_localizer","","html-keyboard-response","75","196261","0.0-2.0-4.6-1.6","29","39781","female","null","","","","null","","2","","","195958","0","","","","","","300","6700","303","6779","300","","","","","","","","","","","","","","","","","","","","","","","","","","","","","","","","","","","","","","","","","","","","","","","","","","","",""
"","localizer","","html-keyboard-response","76","196664","0.0-2.0-4.7-0.7","29","39781","female","363","","","","75","1","2","","Stimuli/Practice_stims/Localizer/charl-durand-bsfXvI25iNg-unsplash.jpg","196261","0","NaN","","1","0","1","400","7000","403","7082","","","","","","","","","","","","","","","","","","","","","","","","","","","","","","","","","","","","","","","","","","","","","","","","","","","","",""
"","iti_localizer","","html-keyboard-response","77","196968","0.0-2.0-4.7-1.7","29","39781","female","null","","","","null","","2","","","196664","0","","","","","","300","7400","304","7485","300","","","","","","","","","","","","","","","","","","","","","","","","","","","","","","","","","","","","","","","","","","","","","","","","","","","",""
"","localizer","","html-keyboard-response","78","197371","0.0-2.0-5.0-0.0","29","39781","female","NaN","","","","null","NaN","3","","Stimuli/Practice_stims/Localizer/nizar-albusaidy-B2r2SWAf5CE-unsplash.jpg","196968","0","NaN","","0","1","0","400","7700","403","7789","","","","","","","","","","","","","","","","","","","","","","","","","","","","","","","","","","","","","","","","","","","","","","","","","","","","",""
"","iti_localizer","","html-keyboard-response","79","197675","0.0-2.0-5.0-1.0","29","39781","female","null","","","","null","","3","","","197371","0","","","","","","300","8100","304","8192","300","","","","","","","","","","","","","","","","","","","","","","","","","","","","","","","","","","","","","","","","","","","","","","","","","","","",""
"","localizer","","html-keyboard-response","80","198078","0.0-2.0-5.1-0.1","29","39781","female","NaN","","","","null","NaN","3","","Stimuli/Practice_stims/Localizer/nizar-albusaidy-B2r2SWAf5CE-unsplash.jpg","197675","0","NaN","","0","1","0","400","8400","403","8496","","","","","","","","","","","","","","","","","","","","","","","","","","","","","","","","","","","","","","","","","","","","","","","","","","","","",""
"","iti_localizer","","html-keyboard-response","81","198381","0.0-2.0-5.1-1.1","29","39781","female","null","","","","null","","3","","","198078","0","","","","","","300","8800","303","8899","300","","","","","","","","","","","","","","","","","","","","","","","","","","","","","","","","","","","","","","","","","","","","","","","","","","","",""
"","localizer","","html-keyboard-response","82","198784","0.0-2.0-5.2-0.2","29","39781","female","364","","","","68","0","3","","Stimuli/Practice_stims/Localizer/nizar-albusaidy-B2r2SWAf5CE-unsplash.jpg","198381","0","NaN","","0","0","1","400","9100","403","9202","","","","","","","","","","","","","","","","","","","","","","","","","","","","","","","","","","","","","","","","","","","","","","","","","","","","",""
"","iti_localizer","","html-keyboard-response","83","199088","0.0-2.0-5.2-1.2","29","39781","female","null","","","","null","","3","","","198784","0","","","","","","300","9500","304","9605","300","","","","","","","","","","","","","","","","","","","","","","","","","","","","","","","","","","","","","","","","","","","","","","","","","","","",""
"","localizer","","html-keyboard-response","84","199491","0.0-2.0-6.0-0.0","29","39781","female","NaN","","","","null","NaN","4","","Stimuli/Practice_stims/Localizer/randy-fath-epf1tdtIIkM-unsplash.jpg","199088","0","NaN","","1","1","0","400","9800","403","9909","","","","","","","","","","","","","","","","","","","","","","","","","","","","","","","","","","","","","","","","","","","","","","","","","","","","",""
"","iti_localizer","","html-keyboard-response","85","199794","0.0-2.0-6.0-1.0","29","39781","female","null","","","","null","","4","","","199491","0","","","","","","300","10200","303","10312","300","","","","","","","","","","","","","","","","","","","","","","","","","","","","","","","","","","","","","","","","","","","","","","","","","","","",""
"","localizer","","html-keyboard-response","86","200198","0.0-2.0-6.1-0.1","29","39781","female","383","","","","75","1","4","","Stimuli/Practice_stims/Localizer/randy-fath-epf1tdtIIkM-unsplash.jpg","199794","0","NaN","","1","0","1","400","10500","404","10615","","","","","","","","","","","","","","","","","","","","","","","","","","","","","","","","","","","","","","","","","","","","","","","","","","","","",""
"","iti_localizer","","html-keyboard-response","87","200501","0.0-2.0-6.1-1.1","29","39781","female","null","","","","null","","4","","","200198","0","","","","","","300","10900","303","11019","300","","","","","","","","","","","","","","","","","","","","","","","","","","","","","","","","","","","","","","","","","","","","","","","","","","","",""
"","localizer","","html-keyboard-response","88","200904","0.0-2.0-7.0-0.0","29","39781","female","NaN","","","","null","NaN","5","","Stimuli/Practice_stims/Localizer/yassine-khalfalli-adsQ9d_Cx0c-unsplash.jpg","200501","0","NaN","","0","1","0","400","11200","403","11322","","","","","","","","","","","","","","","","","","","","","","","","","","","","","","","","","","","","","","","","","","","","","","","","","","","","",""
"","iti_localizer","","html-keyboard-response","89","201209","0.0-2.0-7.0-1.0","29","39781","female","null","","","","null","","5","","","200904","0","","","","","","300","11600","305","11725","300","","","","","","","","","","","","","","","","","","","","","","","","","","","","","","","","","","","","","","","","","","","","","","","","","","","",""
"","localizer","","html-keyboard-response","90","201612","0.0-2.0-7.1-0.1","29","39781","female","NaN","","","","null","NaN","5","","Stimuli/Practice_stims/Localizer/yassine-khalfalli-adsQ9d_Cx0c-unsplash.jpg","201209","0","NaN","","0","1","0","400","11900","403","12030","","","","","","","","","","","","","","","","","","","","","","","","","","","","","","","","","","","","","","","","","","","","","","","","","","","","",""
"","iti_localizer","","html-keyboard-response","91","201915","0.0-2.0-7.1-1.1","29","39781","female","null","","","","null","","5","","","201612","0","","","","","","300","12300","303","12433","300","","","","","","","","","","","","","","","","","","","","","","","","","","","","","","","","","","","","","","","","","","","","","","","","","","","",""
"","localizer","","html-keyboard-response","92","202318","0.0-2.0-7.2-0.2","29","39781","female","350","","","","68","0","5","","Stimuli/Practice_stims/Localizer/yassine-khalfalli-adsQ9d_Cx0c-unsplash.jpg","201915","0","NaN","","0","0","1","400","12600","403","12736","","","","","","","","","","","","","","","","","","","","","","","","","","","","","","","","","","","","","","","","","","","","","","","","","","","","",""
"","iti_localizer","","html-keyboard-response","93","202622","0.0-2.0-7.2-1.2","29","39781","female","null","","","","null","","5","","","202318","0","","","","","","300","13000","304","13139","300","","","","","","","","","","","","","","","","","","","","","","","","","","","","","","","","","","","","","","","","","","","","","","","","","","","",""
"","practice_over","","html-keyboard-response","94","207893","0.0-2.0-7.2-2.2-0.2","29","39781","female","5268","","","","68","","","","","","","","","","","","","","","","","","","","","","","","","","","","","","","","","","","","","","","","","","","","","","","","","","","","","","","","","","","","","","","","","","","",""
"","start_run","","html-keyboard-response","95","210133","0.0-2.0-7.2-2.2-1.2","29","39781","female","2238","","","","84","","","","","","","","","","","","","","","","","","","","","","","","","","","","","","","","","","","","","","","","","","","","","","","","","","","","","","","","","","","","","","","","","","","",""
"","localizer","","html-keyboard-response","96","210537","0.0-2.0-8.0-0.0","29","39781","female","NaN","","","","null","NaN","6","","Stimuli/Experimental_stims/localizer/body_parts/igordoon-primus-CdyHqfrbGIs-unsplash.jpg","210133","1","body_parts","","0","1","0","400","0","404","0","","","","","","","","","","","","","","","","","","","","","","","","","","","","","","","","","","","","","","","","","","","","","","","","","","","","",""
"","iti_localizer","","html-keyboard-response","97","210840","0.0-2.0-8.0-1.0","29","39781","female","null","","","","null","","6","","","210537","1","","","","","","300","400","303","404","300","","","","","","","","","","","","","","","","","","","","","","","","","","","","","","","","","","","","","","","","","","","","","","","","","","","",""
"","localizer","","html-keyboard-response","98","211243","0.0-2.0-9.0-0.0","29","39781","female","NaN","","","","null","NaN","7","","Stimuli/Experimental_stims/localizer/body_parts/jonathan-borba-hTwH8QFkPMs-unsplash.jpg","210840","1","body_parts","","0","1","0","400","700","403","707","","","","","","","","","","","","","","","","","","","","","","","","","","","","","","","","","","","","","","","","","","","","","","","","","","","","",""
"","iti_localizer","","html-keyboard-response","99","211547","0.0-2.0-9.0-1.0","29","39781","female","null","","","","null","","7","","","211243","1","","","","","","300","1100","304","1110","300","","","","","","","","","","","","","","","","","","","","","","","","","","","","","","","","","","","","","","","","","","","","","","","","","","","",""
"","localizer","","html-keyboard-response","100","211951","0.0-2.0-10.0-0.0","29","39781","female","NaN","","","","null","NaN","8","","Stimuli/Experimental_stims/localizer/body_parts/marcel-fagin-OUYg0Q3ec-Y-unsplash.jpg","211547","1","body_parts","","1","1","0","400","1400","404","1414","","","","","","","","","","","","","","","","","","","","","","","","","","","","","","","","","","","","","","","","","","","","","","","","","","","","",""
"","iti_localizer","","html-keyboard-response","101","212254","0.0-2.0-10.0-1.0","29","39781","female","null","","","","null","","8","","","211951","1","","","","","","300","1800","303","1818","300","","","","","","","","","","","","","","","","","","","","","","","","","","","","","","","","","","","","","","","","","","","","","","","","","","","",""
"","localizer","","html-keyboard-response","102","212658","0.0-2.0-11.0-0.0","29","39781","female","NaN","","","","null","NaN","9","","Stimuli/Experimental_stims/localizer/body_parts/anelya-okapova-V69kmOyZ3SU-unsplash.jpg","212254","1","body_parts","","0","1","0","400","2100","404","2121","","","","","","","","","","","","","","","","","","","","","","","","","","","","","","","","","","","","","","","","","","","","","","","","","","","","",""
"","iti_localizer","","html-keyboard-response","103","212961","0.0-2.0-11.0-1.0","29","39781","female","null","","","","null","","9","","","212658","1","","","","","","300","2500","303","2525","300","","","","","","","","","","","","","","","","","","","","","","","","","","","","","","","","","","","","","","","","","","","","","","","","","","","",""
"","localizer","","html-keyboard-response","104","213364","0.0-2.0-12.0-0.0","29","39781","female","370","","","","68","0","10","","Stimuli/Experimental_stims/localizer/body_parts/jan-romero-DL4DDQb8yjc-unsplash.jpg","212961","1","body_parts","","0","0","1","400","2800","403","2828","","","","","","","","","","","","","","","","","","","","","","","","","","","","","","","","","","","","","","","","","","","","","","","","","","","","",""
"","iti_localizer","","html-keyboard-response","105","213667","0.0-2.0-12.0-1.0","29","39781","female","null","","","","null","","10","","","213364","1","","","","","","300","3200","303","3231","300","","","","","","","","","","","","","","","","","","","","","","","","","","","","","","","","","","","","","","","","","","","","","","","","","","","",""
"","localizer","","html-keyboard-response","106","214071","0.0-2.0-13.0-0.0","29","39781","female","311","","","","68","0","11","","Stimuli/Experimental_stims/localizer/body_parts/pure-julia-9lVaya31sMk-unsplash.jpg","213667","1","body_parts","","0","0","1","400","3500","404","3534","","","","","","","","","","","","","","","","","","","","","","","","","","","","","","","","","","","","","","","","","","","","","","","","","","","","",""
"","iti_localizer","","html-keyboard-response","107","214374","0.0-2.0-13.0-1.0","29","39781","female","null","","","","null","","11","","","214071","1","","","","","","300","3900","303","3938","300","","","","","","","","","","","","","","","","","","","","","","","","","","","","","","","","","","","","","","","","","","","","","","","","","","","",""
"","localizer","","html-keyboard-response","108","214778","0.0-2.0-14.0-0.0","29","39781","female","300","","","","68","0","12","","Stimuli/Experimental_stims/localizer/body_parts/jasper-garratt-Ng_Kl7K6V8Y-unsplash.jpg","214374","1","body_parts","","0","0","1","400","4200","404","4241","","","","","","","","","","","","","","","","","","","","","","","","","","","","","","","","","","","","","","","","","","","","","","","","","","","","",""
"","iti_localizer","","html-keyboard-response","109","215081","0.0-2.0-14.0-1.0","29","39781","female","null","","","","null","","12","","","214778","1","","","","","","300","4600","303","4645","300","","","","","","","","","","","","","","","","","","","","","","","","","","","","","","","","","","","","","","","","","","","","","","","","","","","",""
"","localizer","","html-keyboard-response","110","215484","0.0-2.0-15.0-0.0","29","39781","female","274","","","","68","0","13","","Stimuli/Experimental_stims/localizer/body_parts/i-am_nah--S4OsO0c6Ts-unsplash.jpg","215081","1","body_parts","","0","0","1","400","4900","403","4948","","","","","","","","","","","","","","","","","","","","","","","","","","","","","","","","","","","","","","","","","","","","","","","","","","","","",""
"","iti_localizer","","html-keyboard-response","111","215788","0.0-2.0-15.0-1.0","29","39781","female","null","","","","null","","13","","","215484","1","","","","","","300","5300","304","5351","300","","","","","","","","","","","","","","","","","","","","","","","","","","","","","","","","","","","","","","","","","","","","","","","","","","","",""
"","localizer","","html-keyboard-response","112","216191","0.0-2.0-16.0-0.0","29","39781","female","279","","","","68","0","14","","Stimuli/Experimental_stims/localizer/body_parts/femme-spirit-RGYBDUHYbyM-unsplash.jpg","215788","1","body_parts","","0","0","1","400","5600","403","5655","","","","","","","","","","","","","","","","","","","","","","","","","","","","","","","","","","","","","","","","","","","","","","","","","","","","",""
"","iti_localizer","","html-keyboard-response","113","216494","0.0-2.0-16.0-1.0","29","39781","female","null","","","","null","","14","","","216191","1","","","","","","300","6000","303","6058","300","","","","","","","","","","","","","","","","","","","","","","","","","","","","","","","","","","","","","","","","","","","","","","","","","","","",""
"","localizer","","html-keyboard-response","114","216897","0.0-2.0-17.0-0.0","29","39781","female","220","","","","68","0","15","","Stimuli/Experimental_stims/localizer/body_parts/liv-bruce-M0oVPGsWk1E-unsplash.jpg","216494","1","body_parts","","0","0","1","400","6300","403","6361","","","","","","","","","","","","","","","","","","","","","","","","","","","","","","","","","","","","","","","","","","","","","","","","","","","","",""
"","iti_localizer","","html-keyboard-response","115","217201","0.0-2.0-17.0-1.0","29","39781","female","null","","","","null","","15","","","216897","1","","","","","","300","6700","304","6764","300","","","","","","","","","","","","","","","","","","","","","","","","","","","","","","","","","","","","","","","","","","","","","","","","","","","",""
"","localizer","","html-keyboard-response","116","217605","0.0-2.0-18.0-0.0","29","39781","female","227","","","","68","0","16","","Stimuli/Experimental_stims/localizer/body_parts/bady-abbas-N-VEeMnm7gE-unsplash.jpg","217201","1","body_parts","","0","0","1","400","7000","404","7068","","","","","","","","","","","","","","","","","","","","","","","","","","","","","","","","","","","","","","","","","","","","","","","","","","","","",""
"","iti_localizer","","html-keyboard-response","117","217908","0.0-2.0-18.0-1.0","29","39781","female","null","","","","null","","16","","","217605","1","","","","","","300","7400","303","7472","300","","","","","","","","","","","","","","","","","","","","","","","","","","","","","","","","","","","","","","","","","","","","","","","","","","","",""
"","localizer","","html-keyboard-response","118","218311","0.0-2.0-19.0-0.0","29","39781","female","287","","","","68","0","17","","Stimuli/Experimental_stims/localizer/body_parts/lucaxx-freire-CacZwMexYdk-unsplash.jpg","217908","1","body_parts","","0","0","1","400","7700","403","7775","","","","","","","","","","","","","","","","","","","","","","","","","","","","","","","","","","","","","","","","","","","","","","","","","","","","",""
"","iti_localizer","","html-keyboard-response","119","218615","0.0-2.0-19.0-1.0","29","39781","female","null","","","","null","","17","","","218311","1","","","","","","300","8100","304","8178","300","","","","","","","","","","","","","","","","","","","","","","","","","","","","","","","","","","","","","","","","","","","","","","","","","","","",""
"","localizer","","html-keyboard-response","120","219018","0.0-2.0-20.0-0.0","29","39781","female","277","","","","68","0","18","","Stimuli/Experimental_stims/localizer/body_parts/hu-chen-tCbTGNwrFNM-unsplash.jpg","218615","1","body_parts","","0","0","1","400","8400","403","8482","","","","","","","","","","","","","","","","","","","","","","","","","","","","","","","","","","","","","","","","","","","","","","","","","","","","",""
"","iti_localizer","","html-keyboard-response","121","219321","0.0-2.0-20.0-1.0","29","39781","female","null","","","","null","","18","","","219018","1","","","","","","300","8800","303","8885","300","","","","","","","","","","","","","","","","","","","","","","","","","","","","","","","","","","","","","","","","","","","","","","","","","","","",""
"","localizer","","html-keyboard-response","122","219725","0.0-2.0-21.0-0.0","29","39781","female","258","","","","68","0","19","","Stimuli/Experimental_stims/localizer/body_parts/megan-menegay-UojxG_BJxnI-unsplash.jpg","219321","1","body_parts","","0","0","1","400","9100","404","9188","","","","","","","","","","","","","","","","","","","","","","","","","","","","","","","","","","","","","","","","","","","","","","","","","","","","",""
"","iti_localizer","","html-keyboard-response","123","220028","0.0-2.0-21.0-1.0","29","39781","female","null","","","","null","","19","","","219725","1","","","","","","300","9500","303","9592","300","","","","","","","","","","","","","","","","","","","","","","","","","","","","","","","","","","","","","","","","","","","","","","","","","","","",""
"","localizer","","html-keyboard-response","124","220431","0.0-2.0-22.0-0.0","29","39781","female","392","","","","75","1","20","","Stimuli/Experimental_stims/localizer/body_parts/toan-nguyen-VIeLuUFzesg-unsplash.jpg","220028","1","body_parts","","1","0","1","400","9800","403","9895","","","","","","","","","","","","","","","","","","","","","","","","","","","","","","","","","","","","","","","","","","","","","","","","","","","","",""
"","iti_localizer","","html-keyboard-response","125","220734","0.0-2.0-22.0-1.0","29","39781","female","null","","","","null","","20","","","220431","1","","","","","","300","10200","303","10298","300","","","","","","","","","","","","","","","","","","","","","","","","","","","","","","","","","","","","","","","","","","","","","","","","","","","",""
"","localizer","","html-keyboard-response","126","221138","0.0-2.0-23.0-0.0","29","39781","female","309","","","","68","0","21","","Stimuli/Experimental_stims/localizer/body_parts/sippakorn-yamkasikorn-32_sJlJa5gA-unsplash.jpg","220734","1","body_parts","","0","0","1","400","10500","404","10601","","","","","","","","","","","","","","","","","","","","","","","","","","","","","","","","","","","","","","","","","","","","","","","","","","","","",""
"","iti_localizer","","html-keyboard-response","127","221442","0.0-2.0-23.0-1.0","29","39781","female","null","","","","null","","21","","","221138","1","","","","","","300","10900","304","11005","300","","","","","","","","","","","","","","","","","","","","","","","","","","","","","","","","","","","","","","","","","","","","","","","","","","","",""
"","localizer","","html-keyboard-response","128","221845","0.0-2.0-24.0-0.0","29","39781","female","338","","","","68","0","22","","Stimuli/Experimental_stims/localizer/body_parts/louis-hansel-FjKTMRTQYAs-unsplash.jpg","221442","1","body_parts","","0","0","1","400","11200","403","11309","","","","","","","","","","","","","","","","","","","","","","","","","","","","","","","","","","","","","","","","","","","","","","","","","","","","",""
"","iti_localizer","","html-keyboard-response","129","222148","0.0-2.0-24.0-1.0","29","39781","female","null","","","","null","","22","","","221845","1","","","","","","300","11600","303","11712","300","","","","","","","","","","","","","","","","","","","","","","","","","","","","","","","","","","","","","","","","","","","","","","","","","","","",""
"","localizer","","html-keyboard-response","130","222552","0.0-2.0-25.0-0.0","29","39781","female","295","","","","68","0","23","","Stimuli/Experimental_stims/localizer/body_parts/sydney-herron-b2W04fGuS70-unsplash.jpg","222148","1","body_parts","","0","0","1","400","11900","404","12015","","","","","","","","","","","","","","","","","","","","","","","","","","","","","","","","","","","","","","","","","","","","","","","","","","","","",""
"","iti_localizer","","html-keyboard-response","131","222855","0.0-2.0-25.0-1.0","29","39781","female","null","","","","null","","23","","","222552","1","","","","","","300","12300","303","12419","300","","","","","","","","","","","","","","","","","","","","","","","","","","","","","","","","","","","","","","","","","","","","","","","","","","","",""
"","localizer","","html-keyboard-response","132","223258","0.0-2.0-26.0-0.0","29","39781","female","253","","","","68","0","24","","Stimuli/Experimental_stims/localizer/body_parts/danie-franco-jyyNiSEcCl4-unsplash.jpg","222855","1","body_parts","","0","0","1","400","12600","403","12722","","","","","","","","","","","","","","","","","","","","","","","","","","","","","","","","","","","","","","","","","","","","","","","","","","","","",""
"","iti_localizer","","html-keyboard-response","133","223561","0.0-2.0-26.0-1.0","29","39781","female","null","","","","null","","24","","","223258","1","","","","","","300","13000","303","13125","300","","","","","","","","","","","","","","","","","","","","","","","","","","","","","","","","","","","","","","","","","","","","","","","","","","","",""
"","localizer","","html-keyboard-response","134","223965","0.0-2.0-27.0-0.0","29","39781","female","266","","","","68","0","25","","Stimuli/Experimental_stims/localizer/body_parts/ramesh-iyer-CRhznMXoJlc-unsplash.jpg","223561","1","body_parts","","0","0","1","400","13300","404","13428","","","","","","","","","","","","","","","","","","","","","","","","","","","","","","","","","","","","","","","","","","","","","","","","","","","","",""
"","iti_localizer","","html-keyboard-response","135","237968","0.0-2.0-27.0-1.0","29","39781","female","null","","","","null","","25","","","223965","1","","","","","","14000","13700","14003","13832","14000","","","","","","","","","","","","","","","","","","","","","","","","","","","","","","","","","","","","","","","","","","","","","","","","","","","",""
"","localizer","","html-keyboard-response","136","238372","0.0-2.0-28.0-0.0","29","39781","female","NaN","","","","null","NaN","26","","Stimuli/Experimental_stims/localizer/objects/adriano-pucciarelli-BE7yaZnZX6o-unsplash.jpg","237968","1","objects","","0","1","0","400","27700","404","27835","","","","","","","","","","","","","","","","","","","","","","","","","","","","","","","","","","","","","","","","","","","","","","","","","","","","",""
"","iti_localizer","","html-keyboard-response","137","238675","0.0-2.0-28.0-1.0","29","39781","female","null","","","","null","","26","","","238372","1","","","","","","300","28100","303","28239","300","","","","","","","","","","","","","","","","","","","","","","","","","","","","","","","","","","","","","","","","","","","","","","","","","","","",""
"","localizer","","html-keyboard-response","138","239079","0.0-2.0-29.0-0.0","29","39781","female","50","","","","68","0","27","","Stimuli/Experimental_stims/localizer/objects/petr-sidorov-3jm5TGqtULU-unsplash.jpg","238675","1","objects","","0","0","1","400","28400","404","28542","","","","","","","","","","","","","","","","","","","","","","","","","","","","","","","","","","","","","","","","","","","","","","","","","","","","",""
"","iti_localizer","","html-keyboard-response","139","239382","0.0-2.0-29.0-1.0","29","39781","female","null","","","","null","","27","","","239079","1","","","","","","300","28800","303","28946","300","","","","","","","","","","","","","","","","","","","","","","","","","","","","","","","","","","","","","","","","","","","","","","","","","","","",""
"","localizer","","html-keyboard-response","140","239786","0.0-2.0-30.0-0.0","29","39781","female","8","","","","68","0","28","","Stimuli/Experimental_stims/localizer/objects/carlos-felipe-ramirez-mesa-HW7bfB3ERSQ-unsplash.jpg","239382","1","objects","","0","0","1","400","29100","404","29249","","","","","","","","","","","","","","","","","","","","","","","","","","","","","","","","","","","","","","","","","","","","","","","","","","","","",""
"","iti_localizer","","html-keyboard-response","141","240089","0.0-2.0-30.0-1.0","29","39781","female","null","","","","null","","28","","","239786","1","","","","","","300","29500","303","29653","300","","","","","","","","","","","","","","","","","","","","","","","","","","","","","","","","","","","","","","","","","","","","","","","","","","","",""
"","localizer","","html-keyboard-response","142","240492","0.0-2.0-31.0-0.0","29","39781","female","NaN","","","","null","NaN","29","","Stimuli/Experimental_stims/localizer/objects/raimond-klavins-ZdvDPXVvcKs-unsplash.jpg","240089","1","objects","","1","1","0","400","29800","403","29956","","","","","","","","","","","","","","","","","","","","","","","","","","","","","","","","","","","","","","","","","","","","","","","","","","","","",""
"","iti_localizer","","html-keyboard-response","143","240799","0.0-2.0-31.0-1.0","29","39781","female","null","","","","null","","29","","","240492","1","","","","","","300","30200","307","30359","300","","","","","","","","","","","","","","","","","","","","","","","","","","","","","","","","","","","","","","","","","","","","","","","","","","","",""
"","localizer","","html-keyboard-response","144","241203","0.0-2.0-32.0-0.0","29","39781","female","22","","","","75","1","30","","Stimuli/Experimental_stims/localizer/objects/adriano-pucciarelli-Jl3S1yM8gi8-unsplash.jpg","240799","1","objects","","0","0","0","400","30500","404","30666","","","","","","","","","","","","","","","","","","","","","","","","","","","","","","","","","","","","","","","","","","","","","","","","","","","","",""
"","iti_localizer","","html-keyboard-response","145","241506","0.0-2.0-32.0-1.0","29","39781","female","null","","","","null","","30","","","241203","1","","","","","","300","30900","303","31070","300","","","","","","","","","","","","","","","","","","","","","","","","","","","","","","","","","","","","","","","","","","","","","","","","","","","",""
"","localizer","","html-keyboard-response","146","241910","0.0-2.0-33.0-0.0","29","39781","female","NaN","","","","null","NaN","31","","Stimuli/Experimental_stims/localizer/objects/engin-akyurt-bbbKzTmY2Gg-unsplash.jpg","241506","1","objects","","0","1","0","400","31200","404","31373","","","","","","","","","","","","","","","","","","","","","","","","","","","","","","","","","","","","","","","","","","","","","","","","","","","","",""
"","iti_localizer","","html-keyboard-response","147","242213","0.0-2.0-33.0-1.0","29","39781","female","null","","","","null","","31","","","241910","1","","","","","","300","31600","303","31777","300","","","","","","","","","","","","","","","","","","","","","","","","","","","","","","","","","","","","","","","","","","","","","","","","","","","",""
"","localizer","","html-keyboard-response","148","242616","0.0-2.0-34.0-0.0","29","39781","female","328","","","","68","0","32","","Stimuli/Experimental_stims/localizer/objects/sam-moghadam-khamseh-kvmdsTrGOBM-unsplash.jpg","242213","1","objects","","0","0","1","400","31900","403","32080","","","","","","","","","","","","","","","","","","","","","","","","","","","","","","","","","","","","","","","","","","","","","","","","","","","","",""
"","iti_localizer","","html-keyboard-response","149","242920","0.0-2.0-34.0-1.0","29","39781","female","null","","","","null","","32","","","242616","1","","","","","","300","32300","304","32483","300","","","","","","","","","","","","","","","","","","","","","","","","","","","","","","","","","","","","","","","","","","","","","","","","","","","",""
"","localizer","","html-keyboard-response","150","243323","0.0-2.0-35.0-0.0","29","39781","female","271","","","","68","0","33","","Stimuli/Experimental_stims/localizer/objects/jiangxulei1990-eIzzzwtkBjU-unsplash.jpg","242920","1","objects","","0","0","1","400","32600","403","32787","","","","","","","","","","","","","","","","","","","","","","","","","","","","","","","","","","","","","","","","","","","","","","","","","","","","",""
"","iti_localizer","","html-keyboard-response","151","243626","0.0-2.0-35.0-1.0","29","39781","female","null","","","","null","","33","","","243323","1","","","","","","300","33000","303","33190","300","","","","","","","","","","","","","","","","","","","","","","","","","","","","","","","","","","","","","","","","","","","","","","","","","","","",""
"","localizer","","html-keyboard-response","152","244029","0.0-2.0-36.0-0.0","29","39781","female","324","","","","68","0","34","","Stimuli/Experimental_stims/localizer/objects/florian-klauer-nptLmg6jqDo-unsplash.jpg","243626","1","objects","","0","0","1","400","33300","403","33493","","","","","","","","","","","","","","","","","","","","","","","","","","","","","","","","","","","","","","","","","","","","","","","","","","","","",""
"","iti_localizer","","html-keyboard-response","153","244333","0.0-2.0-36.0-1.0","29","39781","female","null","","","","null","","34","","","244029","1","","","","","","300","33700","304","33896","300","","","","","","","","","","","","","","","","","","","","","","","","","","","","","","","","","","","","","","","","","","","","","","","","","","","",""
"","localizer","","html-keyboard-response","154","244735","0.0-2.0-37.0-0.0","29","39781","female","NaN","","","","null","NaN","35","","Stimuli/Experimental_stims/localizer/objects/ignat-dolomanov-kFBDVnmskPA-unsplash.jpg","244333","1","objects","","0","1","0","400","34000","402","34200","","","","","","","","","","","","","","","","","","","","","","","","","","","","","","","","","","","","","","","","","","","","","","","","","","","","",""
"","iti_localizer","","html-keyboard-response","155","245039","0.0-2.0-37.0-1.0","29","39781","female","null","","","","null","","35","","","244735","1","","","","","","300","34400","304","34602","300","","","","","","","","","","","","","","","","","","","","","","","","","","","","","","","","","","","","","","","","","","","","","","","","","","","",""
"","localizer","","html-keyboard-response","156","245442","0.0-2.0-38.0-0.0","29","39781","female","280","","","","68","0","36","","Stimuli/Experimental_stims/localizer/objects/andrew-petrov-TVJqDat4MAw-unsplash.jpg","245039","1","objects","","0","0","1","400","34700","403","34906","","","","","","","","","","","","","","","","","","","","","","","","","","","","","","","","","","","","","","","","","","","","","","","","","","","","",""
"","iti_localizer","","html-keyboard-response","157","245744","0.0-2.0-38.0-1.0","29","39781","female","null","","","","null","","36","","","245442","1","","","","","","300","35100","302","35309","300","","","","","","","","","","","","","","","","","","","","","","","","","","","","","","","","","","","","","","","","","","","","","","","","","","","",""
"","localizer","","html-keyboard-response","158","246147","0.0-2.0-39.0-0.0","29","39781","female","254","","","","68","0","37","","Stimuli/Experimental_stims/localizer/objects/sam-moghadam-khamseh-L_7MQsHl_aU-unsplash.jpg","245744","1","objects","","0","0","1","400","35400","403","35611","","","","","","","","","","","","","","","","","","","","","","","","","","","","","","","","","","","","","","","","","","","","","","","","","","","","",""
"","iti_localizer","","html-keyboard-response","159","246451","0.0-2.0-39.0-1.0","29","39781","female","null","","","","null","","37","","","246147","1","","","","","","300","35800","304","36014","300","","","","","","","","","","","","","","","","","","","","","","","","","","","","","","","","","","","","","","","","","","","","","","","","","","","",""
"","localizer","","html-keyboard-response","160","246855","0.0-2.0-40.0-0.0","29","39781","female","267","","","","68","0","38","","Stimuli/Experimental_stims/localizer/objects/ana-9GmAaEMMKho-unsplash.jpg","246451","1","objects","","0","0","1","400","36100","404","36318","","","","","","","","","","","","","","","","","","","","","","","","","","","","","","","","","","","","","","","","","","","","","","","","","","","","",""
"","iti_localizer","","html-keyboard-response","161","247158","0.0-2.0-40.0-1.0","29","39781","female","null","","","","null","","38","","","246855","1","","","","","","300","36500","303","36722","300","","","","","","","","","","","","","","","","","","","","","","","","","","","","","","","","","","","","","","","","","","","","","","","","","","","",""
"","localizer","","html-keyboard-response","162","247562","0.0-2.0-41.0-0.0","29","39781","female","280","","","","68","0","39","","Stimuli/Experimental_stims/localizer/objects/mockup-graphics-U6ZMEefFGx8-unsplash.jpg","247158","1","objects","","0","0","1","400","36800","404","37025","","","","","","","","","","","","","","","","","","","","","","","","","","","","","","","","","","","","","","","","","","","","","","","","","","","","",""
"","iti_localizer","","html-keyboard-response","163","247864","0.0-2.0-41.0-1.0","29","39781","female","null","","","","null","","39","","","247562","1","","","","","","300","37200","302","37429","300","","","","","","","","","","","","","","","","","","","","","","","","","","","","","","","","","","","","","","","","","","","","","","","","","","","",""
"","localizer","","html-keyboard-response","164","248268","0.0-2.0-42.0-0.0","29","39781","female","262","","","","68","0","40","","Stimuli/Experimental_stims/localizer/objects/kelly-jean-cKjbI0Y00X0-unsplash.jpg","247864","1","objects","","0","0","1","400","37500","404","37731","","","","","","","","","","","","","","","","","","","","","","","","","","","","","","","","","","","","","","","","","","","","","","","","","","","","",""
"","iti_localizer","","html-keyboard-response","165","248571","0.0-2.0-42.0-1.0","29","39781","female","null","","","","null","","40","","","248268","1","","","","","","300","37900","303","38135","300","","","","","","","","","","","","","","","","","","","","","","","","","","","","","","","","","","","","","","","","","","","","","","","","","","","",""
"","localizer","","html-keyboard-response","166","248975","0.0-2.0-43.0-0.0","29","39781","female","348","","","","68","0","41","","Stimuli/Experimental_stims/localizer/objects/eugene-chystiakov-3neSwyntbQ8-unsplash.jpg","248571","1","objects","","0","0","1","400","38200","404","38438","","","","","","","","","","","","","","","","","","","","","","","","","","","","","","","","","","","","","","","","","","","","","","","","","","","","",""
"","iti_localizer","","html-keyboard-response","167","249277","0.0-2.0-43.0-1.0","29","39781","female","null","","","","null","","41","","","248975","1","","","","","","300","38600","302","38842","300","","","","","","","","","","","","","","","","","","","","","","","","","","","","","","","","","","","","","","","","","","","","","","","","","","","",""
"","localizer","","html-keyboard-response","168","249680","0.0-2.0-44.0-0.0","29","39781","female","281","","","","68","0","42","","Stimuli/Experimental_stims/localizer/objects/lance-reis-v0FYj9iioQg-unsplash.jpg","249277","1","objects","","0","0","1","400","38900","403","39144","","","","","","","","","","","","","","","","","","","","","","","","","","","","","","","","","","","","","","","","","","","","","","","","","","","","",""
"","iti_localizer","","html-keyboard-response","169","249984","0.0-2.0-44.0-1.0","29","39781","female","null","","","","null","","42","","","249680","1","","","","","","300","39300","304","39547","300","","","","","","","","","","","","","","","","","","","","","","","","","","","","","","","","","","","","","","","","","","","","","","","","","","","",""
"","localizer","","html-keyboard-response","170","250388","0.0-2.0-45.0-0.0","29","39781","female","271","","","","68","0","43","","Stimuli/Experimental_stims/localizer/objects/annie-spratt-fbAnIjhrOL4-unsplash.jpg","249984","1","objects","","0","0","1","400","39600","404","39851","","","","","","","","","","","","","","","","","","","","","","","","","","","","","","","","","","","","","","","","","","","","","","","","","","","","",""
"","iti_localizer","","html-keyboard-response","171","250691","0.0-2.0-45.0-1.0","29","39781","female","null","","","","null","","43","","","250388","1","","","","","","300","40000","303","40255","300","","","","","","","","","","","","","","","","","","","","","","","","","","","","","","","","","","","","","","","","","","","","","","","","","","","",""
"","localizer","","html-keyboard-response","172","251095","0.0-2.0-46.0-0.0","29","39781","female","236","","","","68","0","44","","Stimuli/Experimental_stims/localizer/objects/mockup-graphics-Pj2PY-E-LfM-unsplash.jpg","250691","1","objects","","1","0","0","400","40300","404","40558","","","","","","","","","","","","","","","","","","","","","","","","","","","","","","","","","","","","","","","","","","","","","","","","","","","","",""
"","iti_localizer","","html-keyboard-response","173","251397","0.0-2.0-46.0-1.0","29","39781","female","null","","","","null","","44","","","251095","1","","","","","","300","40700","302","40962","300","","","","","","","","","","","","","","","","","","","","","","","","","","","","","","","","","","","","","","","","","","","","","","","","","","","",""
"","localizer","","html-keyboard-response","174","251801","0.0-2.0-47.0-0.0","29","39781","female","330","","","","68","0","45","","Stimuli/Experimental_stims/localizer/objects/dario-mendez-hnJ2VNZzbns-unsplash.jpg","251397","1","objects","","0","0","1","400","41000","404","41264","","","","","","","","","","","","","","","","","","","","","","","","","","","","","","","","","","","","","","","","","","","","","","","","","","","","",""
"","iti_localizer","","html-keyboard-response","175","265804","0.0-2.0-47.0-1.0","29","39781","female","null","","","","null","","45","","","251801","1","","","","","","14000","41400","14003","41668","14000","","","","","","","","","","","","","","","","","","","","","","","","","","","","","","","","","","","","","","","","","","","","","","","","","","","",""
"","localizer","","html-keyboard-response","176","266208","0.0-2.0-48.0-0.0","29","39781","female","NaN","","","","null","NaN","46","","Stimuli/Experimental_stims/localizer/faces/christian-ferrer-8vT-DgHZDG4-unsplash.jpg","265804","1","faces","","1","1","0","400","55400","404","55671","","","","","","","","","","","","","","","","","","","","","","","","","","","","","","","","","","","","","","","","","","","","","","","","","","","","",""
"","iti_localizer","","html-keyboard-response","177","266511","0.0-2.0-48.0-1.0","29","39781","female","null","","","","null","","46","","","266208","1","","","","","","300","55800","303","56075","300","","","","","","","","","","","","","","","","","","","","","","","","","","","","","","","","","","","","","","","","","","","","","","","","","","","",""
"","localizer","","html-keyboard-response","178","266914","0.0-2.0-49.0-0.0","29","39781","female","297","","","","75","1","47","","Stimuli/Experimental_stims/localizer/faces/mathias-huysmans-U4JDjYmjn1g-unsplash.jpg","266511","1","faces","","0","0","0","400","56100","403","56378","","","","","","","","","","","","","","","","","","","","","","","","","","","","","","","","","","","","","","","","","","","","","","","","","","","","",""
"","iti_localizer","","html-keyboard-response","179","267218","0.0-2.0-49.0-1.0","29","39781","female","null","","","","null","","47","","","266914","1","","","","","","300","56500","304","56781","300","","","","","","","","","","","","","","","","","","","","","","","","","","","","","","","","","","","","","","","","","","","","","","","","","","","",""
"","localizer","","html-keyboard-response","180","267621","0.0-2.0-50.0-0.0","29","39781","female","366","","","","68","0","48","","Stimuli/Experimental_stims/localizer/faces/filipe-almeida-mnEWC72eWDM-unsplash.jpg","267218","1","faces","","0","0","1","400","56800","403","57085","","","","","","","","","","","","","","","","","","","","","","","","","","","","","","","","","","","","","","","","","","","","","","","","","","","","",""
"","iti_localizer","","html-keyboard-response","181","267924","0.0-2.0-50.0-1.0","29","39781","female","null","","","","null","","48","","","267621","1","","","","","","300","57200","303","57488","300","","","","","","","","","","","","","","","","","","","","","","","","","","","","","","","","","","","","","","","","","","","","","","","","","","","",""
"","localizer","","html-keyboard-response","182","268327","0.0-2.0-51.0-0.0","29","39781","female","245","","","","68","0","49","","Stimuli/Experimental_stims/localizer/faces/midas-hofstra-tidSLv-UaNs-unsplash.jpg","267924","1","faces","","0","0","1","400","57500","403","57791","","","","","","","","","","","","","","","","","","","","","","","","","","","","","","","","","","","","","","","","","","","","","","","","","","","","",""
"","iti_localizer","","html-keyboard-response","183","268630","0.0-2.0-51.0-1.0","29","39781","female","null","","","","null","","49","","","268327","1","","","","","","300","57900","303","58194","300","","","","","","","","","","","","","","","","","","","","","","","","","","","","","","","","","","","","","","","","","","","","","","","","","","","",""
"","localizer","","html-keyboard-response","184","269033","0.0-2.0-52.0-0.0","29","39781","female","220","","","","68","0","50","","Stimuli/Experimental_stims/localizer/faces/darshan-patel-QJEVpydulGs-unsplash.jpg","268630","1","faces","","0","0","1","400","58200","403","58497","","","","","","","","","","","","","","","","","","","","","","","","","","","","","","","","","","","","","","","","","","","","","","","","","","","","",""
"","iti_localizer","","html-keyboard-response","185","269336","0.0-2.0-52.0-1.0","29","39781","female","null","","","","null","","50","","","269033","1","","","","","","300","58600","303","58900","300","","","","","","","","","","","","","","","","","","","","","","","","","","","","","","","","","","","","","","","","","","","","","","","","","","","",""
"","localizer","","html-keyboard-response","186","269739","0.0-2.0-53.0-0.0","29","39781","female","161","","","","68","0","51","","Stimuli/Experimental_stims/localizer/faces/ivan-dodig-R21SyyJDFgc-unsplash.jpg","269336","1","faces","","0","0","1","400","58900","403","59203","","","","","","","","","","","","","","","","","","","","","","","","","","","","","","","","","","","","","","","","","","","","","","","","","","","","",""
"","iti_localizer","","html-keyboard-response","187","270043","0.0-2.0-53.0-1.0","29","39781","female","null","","","","null","","51","","","269739","1","","","","","","300","59300","304","59606","300","","","","","","","","","","","","","","","","","","","","","","","","","","","","","","","","","","","","","","","","","","","","","","","","","","","",""
"","localizer","","html-keyboard-response","188","270446","0.0-2.0-54.0-0.0","29","39781","female","247","","","","68","0","52","","Stimuli/Experimental_stims/localizer/faces/austin-wade-X6Uj51n5CE8-unsplash.jpg","270043","1","faces","","0","0","1","400","59600","403","59910","","","","","","","","","","","","","","","","","","","","","","","","","","","","","","","","","","","","","","","","","","","","","","","","","","","","",""
"","iti_localizer","","html-keyboard-response","189","270750","0.0-2.0-54.0-1.0","29","39781","female","null","","","","null","","52","","","270446","1","","","","","","300","60000","304","60313","300","","","","","","","","","","","","","","","","","","","","","","","","","","","","","","","","","","","","","","","","","","","","","","","","","","","",""
"","localizer","","html-keyboard-response","190","271153","0.0-2.0-55.0-0.0","29","39781","female","236","","","","68","0","53","","Stimuli/Experimental_stims/localizer/faces/linkedin-sales-solutions-pAtA8xe_iVM-unsplash.jpg","270750","1","faces","","0","0","1","400","60300","403","60617","","","","","","","","","","","","","","","","","","","","","","","","","","","","","","","","","","","","","","","","","","","","","","","","","","","","",""
"","iti_localizer","","html-keyboard-response","191","271456","0.0-2.0-55.0-1.0","29","39781","female","null","","","","null","","53","","","271153","1","","","","","","300","60700","303","61020","300","","","","","","","","","","","","","","","","","","","","","","","","","","","","","","","","","","","","","","","","","","","","","","","","","","","",""
"","localizer","","html-keyboard-response","192","271859","0.0-2.0-56.0-0.0","29","39781","female","274","","","","68","0","54","","Stimuli/Experimental_stims/localizer/faces/pavel-anoshin-d0peGya6R5Y-unsplash.jpg","271456","1","faces","","0","0","1","400","61000","403","61323","","","","","","","","","","","","","","","","","","","","","","","","","","","","","","","","","","","","","","","","","","","","","","","","","","","","",""
"","iti_localizer","","html-keyboard-response","193","272162","0.0-2.0-56.0-1.0","29","39781","female","null","","","","null","","54","","","271859","1","","","","","","300","61400","303","61726","300","","","","","","","","","","","","","","","","","","","","","","","","","","","","","","","","","","","","","","","","","","","","","","","","","","","",""
"","localizer","","html-keyboard-response","194","272566","0.0-2.0-57.0-0.0","29","39781","female","247","","","","68","0","55","","Stimuli/Experimental_stims/localizer/faces/jeffery-erhunse-vp9mRauo68c-unsplash.jpg","272162","1","faces","","0","0","1","400","61700","404","62029","","","","","","","","","","","","","","","","","","","","","","","","","","","","","","","","","","","","","","","","","","","","","","","","","","","","",""
"","iti_localizer","","html-keyboard-response","195","272869","0.0-2.0-57.0-1.0","29","39781","female","null","","","","null","","55","","","272566","1","","","","","","300","62100","303","62433","300","","","","","","","","","","","","","","","","","","","","","","","","","","","","","","","","","","","","","","","","","","","","","","","","","","","",""
"","localizer","","html-keyboard-response","196","273273","0.0-2.0-58.0-0.0","29","39781","female","268","","","","68","0","56","","Stimuli/Experimental_stims/localizer/faces/aatik-tasneem-7omHUGhhmZ0-unsplash.jpg","272869","1","faces","","0","0","1","400","62400","404","62736","","","","","","","","","","","","","","","","","","","","","","","","","","","","","","","","","","","","","","","","","","","","","","","","","","","","",""
"","iti_localizer","","html-keyboard-response","197","273576","0.0-2.0-58.0-1.0","29","39781","female","null","","","","null","","56","","","273273","1","","","","","","300","62800","303","63140","300","","","","","","","","","","","","","","","","","","","","","","","","","","","","","","","","","","","","","","","","","","","","","","","","","","","",""
"","localizer","","html-keyboard-response","198","273980","0.0-2.0-59.0-0.0","29","39781","female","257","","","","68","0","57","","Stimuli/Experimental_stims/localizer/faces/abstral-official-cyOKLSgkgCE-unsplash.jpg","273576","1","faces","","0","0","1","400","63100","404","63443","","","","","","","","","","","","","","","","","","","","","","","","","","","","","","","","","","","","","","","","","","","","","","","","","","","","",""
"","iti_localizer","","html-keyboard-response","199","274283","0.0-2.0-59.0-1.0","29","39781","female","null","","","","null","","57","","","273980","1","","","","","","300","63500","303","63847","300","","","","","","","","","","","","","","","","","","","","","","","","","","","","","","","","","","","","","","","","","","","","","","","","","","","",""
"","localizer","","html-keyboard-response","200","274687","0.0-2.0-60.0-0.0","29","39781","female","238","","","","68","0","58","","Stimuli/Experimental_stims/localizer/faces/brooke-cagle-Nm70URdtf3c-unsplash (1).jpg","274283","1","faces","","0","0","1","400","63800","404","64150","","","","","","","","","","","","","","","","","","","","","","","","","","","","","","","","","","","","","","","","","","","","","","","","","","","","",""
"","iti_localizer","","html-keyboard-response","201","274991","0.0-2.0-60.0-1.0","29","39781","female","null","","","","null","","58","","","274687","1","","","","","","300","64200","304","64554","300","","","","","","","","","","","","","","","","","","","","","","","","","","","","","","","","","","","","","","","","","","","","","","","","","","","",""
"","localizer","","html-keyboard-response","202","275395","0.0-2.0-61.0-0.0","29","39781","female","242","","","","68","0","59","","Stimuli/Experimental_stims/localizer/faces/icons8-team-6LZuSzSwso0-unsplash.jpg","274991","1","faces","","0","0","1","400","64500","404","64858","","","","","","","","","","","","","","","","","","","","","","","","","","","","","","","","","","","","","","","","","","","","","","","","","","","","",""
"","iti_localizer","","html-keyboard-response","203","275698","0.0-2.0-61.0-1.0","29","39781","female","null","","","","null","","59","","","275395","1","","","","","","300","64900","303","65262","300","","","","","","","","","","","","","","","","","","","","","","","","","","","","","","","","","","","","","","","","","","","","","","","","","","","",""
"","localizer","","html-keyboard-response","204","276102","0.0-2.0-62.0-0.0","29","39781","female","231","","","","68","0","60","","Stimuli/Experimental_stims/localizer/faces/christina-wocintechchat-com-0Zx1bDv5BNY-unsplash.jpg","275698","1","faces","","0","0","1","400","65200","404","65565","","","","","","","","","","","","","","","","","","","","","","","","","","","","","","","","","","","","","","","","","","","","","","","","","","","","",""
"","iti_localizer","","html-keyboard-response","205","276405","0.0-2.0-62.0-1.0","29","39781","female","null","","","","null","","60","","","276102","1","","","","","","300","65600","303","65969","300","","","","","","","","","","","","","","","","","","","","","","","","","","","","","","","","","","","","","","","","","","","","","","","","","","","",""
"","localizer","","html-keyboard-response","206","276809","0.0-2.0-63.0-0.0","29","39781","female","220","","","","68","0","61","","Stimuli/Experimental_stims/localizer/faces/juan-encalada-WC7KIHo13Fc-unsplash.jpg","276405","1","faces","","0","0","1","400","65900","404","66272","","","","","","","","","","","","","","","","","","","","","","","","","","","","","","","","","","","","","","","","","","","","","","","","","","","","",""
"","iti_localizer","","html-keyboard-response","207","277113","0.0-2.0-63.0-1.0","29","39781","female","null","","","","null","","61","","","276809","1","","","","","","300","66300","304","66676","300","","","","","","","","","","","","","","","","","","","","","","","","","","","","","","","","","","","","","","","","","","","","","","","","","","","",""
"","localizer","","html-keyboard-response","208","277515","0.0-2.0-64.0-0.0","29","39781","female","281","","","","68","0","62","","Stimuli/Experimental_stims/localizer/faces/nick-karvounis-JyO_szjGvUw-unsplash.jpg","277113","1","faces","","0","0","1","400","66600","402","66980","","","","","","","","","","","","","","","","","","","","","","","","","","","","","","","","","","","","","","","","","","","","","","","","","","","","",""
"","iti_localizer","","html-keyboard-response","209","277819","0.0-2.0-64.0-1.0","29","39781","female","null","","","","null","","62","","","277515","1","","","","","","300","67000","304","67382","300","","","","","","","","","","","","","","","","","","","","","","","","","","","","","","","","","","","","","","","","","","","","","","","","","","","",""
"","localizer","","html-keyboard-response","210","278222","0.0-2.0-65.0-0.0","29","39781","female","256","","","","68","0","63","","Stimuli/Experimental_stims/localizer/faces/carlos-vaz-KP4bxnxAilU-unsplash.jpg","277819","1","faces","","0","0","1","400","67300","403","67686","","","","","","","","","","","","","","","","","","","","","","","","","","","","","","","","","","","","","","","","","","","","","","","","","","","","",""
"","iti_localizer","","html-keyboard-response","211","278525","0.0-2.0-65.0-1.0","29","39781","female","null","","","","null","","63","","","278222","1","","","","","","300","67700","303","68089","300","","","","","","","","","","","","","","","","","","","","","","","","","","","","","","","","","","","","","","","","","","","","","","","","","","","",""
"","localizer","","html-keyboard-response","212","278929","0.0-2.0-66.0-0.0","29","39781","female","277","","","","68","0","64","","Stimuli/Experimental_stims/localizer/faces/tyler-nix-ZGa9d1a_4tA-unsplash.jpg","278525","1","faces","","1","0","0","400","68000","404","68392","","","","","","","","","","","","","","","","","","","","","","","","","","","","","","","","","","","","","","","","","","","","","","","","","","","","",""
"","iti_localizer","","html-keyboard-response","213","279232","0.0-2.0-66.0-1.0","29","39781","female","null","","","","null","","64","","","278929","1","","","","","","300","68400","303","68796","300","","","","","","","","","","","","","","","","","","","","","","","","","","","","","","","","","","","","","","","","","","","","","","","","","","","",""
"","localizer","","html-keyboard-response","214","279636","0.0-2.0-67.0-0.0","29","39781","female","291","","","","68","0","65","","Stimuli/Experimental_stims/localizer/faces/samuel-dixon--fQ5XNOcqFQ-unsplash.jpg","279232","1","faces","","0","0","1","400","68700","404","69099","","","","","","","","","","","","","","","","","","","","","","","","","","","","","","","","","","","","","","","","","","","","","","","","","","","","",""
"","iti_localizer","","html-keyboard-response","215","293639","0.0-2.0-67.0-1.0","29","39781","female","null","","","","null","","65","","","279636","1","","","","","","14000","69100","14003","69503","14000","","","","","","","","","","","","","","","","","","","","","","","","","","","","","","","","","","","","","","","","","","","","","","","","","","","",""
"","localizer","","html-keyboard-response","216","294043","0.0-2.0-68.0-0.0","29","39781","female","NaN","","","","null","NaN","66","","Stimuli/Experimental_stims/localizer/body_parts/nihal-karkala-LlOfbQD-IJ0-unsplash.jpg","293639","1","body_parts","","1","1","0","400","83100","404","83506","","","","","","","","","","","","","","","","","","","","","","","","","","","","","","","","","","","","","","","","","","","","","","","","","","","","",""
"","iti_localizer","","html-keyboard-response","217","294347","0.0-2.0-68.0-1.0","29","39781","female","null","","","","null","","66","","","294043","1","","","","","","300","83500","304","83910","300","","","","","","","","","","","","","","","","","","","","","","","","","","","","","","","","","","","","","","","","","","","","","","","","","","","",""
"","localizer","","html-keyboard-response","218","294750","0.0-2.0-69.0-0.0","29","39781","female","322","","","","68","0","67","","Stimuli/Experimental_stims/localizer/body_parts/nick-page-WTNmgJtwzGI-unsplash.jpg","294347","1","body_parts","","0","0","1","400","83800","403","84214","","","","","","","","","","","","","","","","","","","","","","","","","","","","","","","","","","","","","","","","","","","","","","","","","","","","",""
"","iti_localizer","","html-keyboard-response","219","295052","0.0-2.0-69.0-1.0","29","39781","female","null","","","","null","","67","","","294750","1","","","","","","300","84200","302","84617","300","","","","","","","","","","","","","","","","","","","","","","","","","","","","","","","","","","","","","","","","","","","","","","","","","","","",""
"","localizer","","html-keyboard-response","220","295455","0.0-2.0-70.0-0.0","29","39781","female","304","","","","68","0","68","","Stimuli/Experimental_stims/localizer/body_parts/sina-rezakhani-d1gQi0Jl05U-unsplash (1).jpg","295052","1","body_parts","","0","0","1","400","84500","403","84919","","","","","","","","","","","","","","","","","","","","","","","","","","","","","","","","","","","","","","","","","","","","","","","","","","","","",""
"","iti_localizer","","html-keyboard-response","221","295760","0.0-2.0-70.0-1.0","29","39781","female","null","","","","null","","68","","","295455","1","","","","","","300","84900","305","85322","300","","","","","","","","","","","","","","","","","","","","","","","","","","","","","","","","","","","","","","","","","","","","","","","","","","","",""
"","localizer","","html-keyboard-response","222","296163","0.0-2.0-71.0-0.0","29","39781","female","269","","","","68","0","69","","Stimuli/Experimental_stims/localizer/body_parts/meghan-thompson-U1b8OB0QpIo-unsplash.jpg","295760","1","body_parts","","0","0","1","400","85200","403","85627","","","","","","","","","","","","","","","","","","","","","","","","","","","","","","","","","","","","","","","","","","","","","","","","","","","","",""
"","iti_localizer","","html-keyboard-response","223","296466","0.0-2.0-71.0-1.0","29","39781","female","null","","","","null","","69","","","296163","1","","","","","","300","85600","303","86030","300","","","","","","","","","","","","","","","","","","","","","","","","","","","","","","","","","","","","","","","","","","","","","","","","","","","",""
"","localizer","","html-keyboard-response","224","296870","0.0-2.0-72.0-0.0","29","39781","female","218","","","","68","0","70","","Stimuli/Experimental_stims/localizer/body_parts/davidcohen-qghuLqyh3nE-unsplash.jpg","296466","1","body_parts","","0","0","1","400","85900","404","86333","","","","","","","","","","","","","","","","","","","","","","","","","","","","","","","","","","","","","","","","","","","","","","","","","","","","",""
"","iti_localizer","","html-keyboard-response","225","297173","0.0-2.0-72.0-1.0","29","39781","female","null","","","","null","","70","","","296870","1","","","","","","300","86300","303","86737","300","","","","","","","","","","","","","","","","","","","","","","","","","","","","","","","","","","","","","","","","","","","","","","","","","","","",""
"","localizer","","html-keyboard-response","226","297577","0.0-2.0-73.0-0.0","29","39781","female","183","","","","68","0","71","","Stimuli/Experimental_stims/localizer/body_parts/sincerely-media-QyzlAZjm0r0-unsplash.jpg","297173","1","body_parts","","0","0","1","400","86600","404","87040","","","","","","","","","","","","","","","","","","","","","","","","","","","","","","","","","","","","","","","","","","","","","","","","","","","","",""
"","iti_localizer","","html-keyboard-response","227","297880","0.0-2.0-73.0-1.0","29","39781","female","null","","","","null","","71","","","297577","1","","","","","","300","87000","303","87444","300","","","","","","","","","","","","","","","","","","","","","","","","","","","","","","","","","","","","","","","","","","","","","","","","","","","",""
"","localizer","","html-keyboard-response","228","298285","0.0-2.0-74.0-0.0","29","39781","female","148","","","","68","0","72","","Stimuli/Experimental_stims/localizer/body_parts/juja-han-Z8-6EI2tYtw-unsplash.jpg","297880","1","body_parts","","0","0","1","400","87300","405","87747","","","","","","","","","","","","","","","","","","","","","","","","","","","","","","","","","","","","","","","","","","","","","","","","","","","","",""
"","iti_localizer","","html-keyboard-response","229","298588","0.0-2.0-74.0-1.0","29","39781","female","null","","","","null","","72","","","298285","1","","","","","","300","87700","303","88152","300","","","","","","","","","","","","","","","","","","","","","","","","","","","","","","","","","","","","","","","","","","","","","","","","","","","",""
"","localizer","","html-keyboard-response","230","298991","0.0-2.0-75.0-0.0","29","39781","female","192","","","","68","0","73","","Stimuli/Experimental_stims/localizer/body_parts/natalie-grainger-8uB5kFKWWkk-unsplash.jpg","298588","1","body_parts","","0","0","1","400","88000","403","88455","","","","","","","","","","","","","","","","","","","","","","","","","","","","","","","","","","","","","","","","","","","","","","","","","","","","",""
"","iti_localizer","","html-keyboard-response","231","299300","0.0-2.0-75.0-1.0","29","39781","female","null","","","","null","","73","","","298991","1","","","","","","300","88400","309","88858","300","","","","","","","","","","","","","","","","","","","","","","","","","","","","","","","","","","","","","","","","","","","","","","","","","","","",""
"","localizer","","html-keyboard-response","232","299704","0.0-2.0-76.0-0.0","29","39781","female","361","","","","68","0","74","","Stimuli/Experimental_stims/localizer/body_parts/debby-hudson--B_757qSA4k-unsplash.jpg","299300","1","body_parts","","0","0","1","400","88700","404","89167","","","","","","","","","","","","","","","","","","","","","","","","","","","","","","","","","","","","","","","","","","","","","","","","","","","","",""
"","iti_localizer","","html-keyboard-response","233","300007","0.0-2.0-76.0-1.0","29","39781","female","null","","","","null","","74","","","299704","1","","","","","","300","89100","303","89571","300","","","","","","","","","","","","","","","","","","","","","","","","","","","","","","","","","","","","","","","","","","","","","","","","","","","",""
"","localizer","","html-keyboard-response","234","300410","0.0-2.0-77.0-0.0","29","39781","female","278","","","","68","0","75","","Stimuli/Experimental_stims/localizer/body_parts/pure-julia-E9Q4bqYHtIM-unsplash.jpg","300007","1","body_parts","","0","0","1","400","89400","403","89874","","","","","","","","","","","","","","","","","","","","","","","","","","","","","","","","","","","","","","","","","","","","","","","","","","","","",""
"","iti_localizer","","html-keyboard-response","235","300713","0.0-2.0-77.0-1.0","29","39781","female","null","","","","null","","75","","","300410","1","","","","","","300","89800","303","90277","300","","","","","","","","","","","","","","","","","","","","","","","","","","","","","","","","","","","","","","","","","","","","","","","","","","","",""
"","localizer","","html-keyboard-response","236","301116","0.0-2.0-78.0-0.0","29","39781","female","268","","","","68","0","76","","Stimuli/Experimental_stims/localizer/body_parts/charles-etoroma-1fo0biloDOc-unsplash.jpg","300713","1","body_parts","","0","0","1","400","90100","403","90580","","","","","","","","","","","","","","","","","","","","","","","","","","","","","","","","","","","","","","","","","","","","","","","","","","","","",""
"","iti_localizer","","html-keyboard-response","237","301419","0.0-2.0-78.0-1.0","29","39781","female","null","","","","null","","76","","","301116","1","","","","","","300","90500","303","90983","300","","","","","","","","","","","","","","","","","","","","","","","","","","","","","","","","","","","","","","","","","","","","","","","","","","","",""
"","localizer","","html-keyboard-response","238","301822","0.0-2.0-79.0-0.0","29","39781","female","273","","","","68","0","77","","Stimuli/Experimental_stims/localizer/body_parts/david-fanuel-qnV8X7OViNY-unsplash.jpg","301419","1","body_parts","","0","0","1","400","90800","403","91286","","","","","","","","","","","","","","","","","","","","","","","","","","","","","","","","","","","","","","","","","","","","","","","","","","","","",""
"","iti_localizer","","html-keyboard-response","239","302125","0.0-2.0-79.0-1.0","29","39781","female","null","","","","null","","77","","","301822","1","","","","","","300","91200","303","91689","300","","","","","","","","","","","","","","","","","","","","","","","","","","","","","","","","","","","","","","","","","","","","","","","","","","","",""
"","localizer","","html-keyboard-response","240","302541","0.0-2.0-80.0-0.0","29","39781","female","255","","","","68","0","78","","Stimuli/Experimental_stims/localizer/body_parts/diana-polekhina-SwWjCbIIoFE-unsplash.jpg","302125","1","body_parts","","0","0","1","400","91500","416","91992","","","","","","","","","","","","","","","","","","","","","","","","","","","","","","","","","","","","","","","","","","","","","","","","","","","","",""
"","iti_localizer","","html-keyboard-response","241","302845","0.0-2.0-80.0-1.0","29","39781","female","null","","","","null","","78","","","302541","1","","","","","","300","91900","304","92408","300","","","","","","","","","","","","","","","","","","","","","","","","","","","","","","","","","","","","","","","","","","","","","","","","","","","",""
"","localizer","","html-keyboard-response","242","303250","0.0-2.0-81.0-0.0","29","39781","female","NaN","","","","null","NaN","79","","Stimuli/Experimental_stims/localizer/body_parts/ant-rozetsky-bXQd8JXx0vs-unsplash.jpg","302845","1","body_parts","","0","1","0","400","92200","405","92712","","","","","","","","","","","","","","","","","","","","","","","","","","","","","","","","","","","","","","","","","","","","","","","","","","","","",""
"","iti_localizer","","html-keyboard-response","243","303553","0.0-2.0-81.0-1.0","29","39781","female","null","","","","null","","79","","","303250","1","","","","","","300","92600","303","93117","300","","","","","","","","","","","","","","","","","","","","","","","","","","","","","","","","","","","","","","","","","","","","","","","","","","","",""
"","localizer","","html-keyboard-response","244","303955","0.0-2.0-82.0-0.0","29","39781","female","293","","","","68","0","80","","Stimuli/Experimental_stims/localizer/body_parts/callum-skelton-3KLMq7y46nA-unsplash.jpg","303553","1","body_parts","","0","0","1","400","92900","402","93420","","","","","","","","","","","","","","","","","","","","","","","","","","","","","","","","","","","","","","","","","","","","","","","","","","","","",""
"","iti_localizer","","html-keyboard-response","245","304259","0.0-2.0-82.0-1.0","29","39781","female","null","","","","null","","80","","","303955","1","","","","","","300","93300","304","93822","300","","","","","","","","","","","","","","","","","","","","","","","","","","","","","","","","","","","","","","","","","","","","","","","","","","","",""
"","localizer","","html-keyboard-response","246","304662","0.0-2.0-83.0-0.0","29","39781","female","275","","","","68","0","81","","Stimuli/Experimental_stims/localizer/body_parts/freestocks-qw9LFf5T790-unsplash.jpg","304259","1","body_parts","","0","0","1","400","93600","403","94126","","","","","","","","","","","","","","","","","","","","","","","","","","","","","","","","","","","","","","","","","","","","","","","","","","","","",""
"","iti_localizer","","html-keyboard-response","247","304965","0.0-2.0-83.0-1.0","29","39781","female","null","","","","null","","81","","","304662","1","","","","","","300","94000","303","94529","300","","","","","","","","","","","","","","","","","","","","","","","","","","","","","","","","","","","","","","","","","","","","","","","","","","","",""
"","localizer","","html-keyboard-response","248","305368","0.0-2.0-84.0-0.0","29","39781","female","265","","","","68","0","82","","Stimuli/Experimental_stims/localizer/body_parts/carlos-henrique-NAOJKwZswbs-unsplash.jpg","304965","1","body_parts","","0","0","1","400","94300","403","94832","","","","","","","","","","","","","","","","","","","","","","","","","","","","","","","","","","","","","","","","","","","","","","","","","","","","",""
