"success","ttype","start_time","trial_type","trial_index","time_elapsed","internal_node_id","age","PID","gender","rt","responses","view_history","repeat_instructions","key_press","response","index","stimulus_index","path","run","task","isi","is_odd_ball","no_response","acc","duration","onset","pair_id","practice","scramble_screen_time","scramble_instructed_side","stim_type","iti","block","left_stimulus","right_stimulus","left_category","right_category","left_path","right_path","left_rating","right_rating","warning","response_ends_trial","trial_duration","scramble_acc","scramble_no_response","left_chosen","chosen_stimulus","unchosen_stimulus","chosen_category","unchosen_category","chosen_rating","unchosen_rating","chosen_path","unchosen_path"
"true","full_screen","d06292023hr1455","fullscreen","0","2527","0.0-0.0-0.0","NaN","82292","","","","","","","","","","","","","","","","","","","","","","","","","","","","","","","","","","","","","","","","","","","","","","",""
"","get_id","","survey-text","1","5368","0.0-0.0-1.0","NaN","82292","","2835","{""Q0"":""q"",""Q1"":""q""}","","","","","","","","","","","","","","","","","","","","","","","","","","","","","","","","","","","","","","","","","","","",""
"","ratings_instructions","","instructions","2","7735","0.0-1.0-0.0-0.0","NaN","82292","","1988","","[{""page_index"":0,""viewing_time"":1816},{""page_index"":1,""viewing_time"":172}]","","","","","","","","","","","","","","","","","","","","","","","","","","","","","","","","","","","","","","","","","","",""
"","rating_comprehension_check","","survey-multi-choice","3","10457","0.0-1.0-0.0-1.0","NaN","82292","","2716","{""Q0"":""True"",""Q1"":""Mouse""}","","0","","","","","","","","","","","","","","","","","","","","","","","","","","","","","","","","","","","","","","","","","",""
"","","","html-keyboard-response","4","11844","0.0-1.0-1.0","NaN","82292","","1382","","","","68","","","","","","","","","","","","","","","","","","","","","","","","","","","","","","","","","","","","","","","","",""
"","rating","","html-slider-response","5","12807","0.0-1.0-2.0","NaN","82292","","958","","","","","50","0","38","Stimuli/Experimental_stims/objects/art-lasovsky-8XddFc6NkBY-unsplash.jpg","","","","","","","","","","","","","","","","","","","","","","","","","","","","","","","","","","","","",""
"","rating","","html-slider-response","6","12967","0.0-1.0-3.0","NaN","82292","","154","","","","","50","1","24","Stimuli/Experimental_stims/body_parts/clay-banks-LjqARJaJotc-unsplash.jpg","","","","","","","","","","","","","","","","","","","","","","","","","","","","","","","","","","","","",""
"","rating","","html-slider-response","7","13125","0.0-1.0-4.0","NaN","82292","","154","","","","","50","2","13","Stimuli/Experimental_stims/faces/daniel-rigdon-dXmXKPP2L4E-unsplash.jpg","","","","","","","","","","","","","","","","","","","","","","","","","","","","","","","","","","","","",""
"","rating","","html-slider-response","8","13345","0.0-1.0-5.0","NaN","82292","","215","","","","","50","3","2","Stimuli/Experimental_stims/outdoor_scenes/bruno-van-der-kraan-qez8mNJ3ilU-unsplash.jpg","","","","","","","","","","","","","","","","","","","","","","","","","","","","","","","","","","","","",""
"","rating","","html-slider-response","9","13529","0.0-1.0-6.0","NaN","82292","","179","","","","","50","4","36","Stimuli/Experimental_stims/objects/alexander-andrews-JYGnB9gTCls-unsplash.jpg","","","","","","","","","","","","","","","","","","","","","","","","","","","","","","","","","","","","",""
"","rating","","html-slider-response","10","13701","0.0-1.0-7.0","NaN","82292","","167","","","","","50","5","7","Stimuli/Experimental_stims/outdoor_scenes/petr-vysohlid-9fqwGqGLUxc-unsplash.jpg","","","","","","","","","","","","","","","","","","","","","","","","","","","","","","","","","","","","",""
"","rating","","html-slider-response","11","13926","0.0-1.0-8.0","NaN","82292","","220","","","","","50","6","28","Stimuli/Experimental_stims/body_parts/ira-vishnevskaya-8DQAvdCby1I-unsplash.jpg","","","","","","","","","","","","","","","","","","","","","","","","","","","","","","","","","","","","",""
"","rating","","html-slider-response","12","14100","0.0-1.0-9.0","NaN","82292","","170","","","","","50","7","14","Stimuli/Experimental_stims/faces/david-siglin-UuW4psOb388-unsplash.jpg","","","","","","","","","","","","","","","","","","","","","","","","","","","","","","","","","","","","",""
"","rating","","html-slider-response","13","14227","0.0-1.0-10.0","NaN","82292","","122","","","","","50","8","23","Stimuli/Experimental_stims/faces/rikonavt-HQjfrvdTfak-unsplash.jpg","","","","","","","","","","","","","","","","","","","","","","","","","","","","","","","","","","","","",""
"","rating","","html-slider-response","14","14397","0.0-1.0-11.0","NaN","82292","","165","","","","","50","9","39","Stimuli/Experimental_stims/objects/charlesdeluvio-1-nx1QR5dTE-unsplash.jpg","","","","","","","","","","","","","","","","","","","","","","","","","","","","","","","","","","","","",""
"","rating","","html-slider-response","15","14581","0.0-1.0-12.0","NaN","82292","","179","","","","","50","10","11","Stimuli/Experimental_stims/outdoor_scenes/stephen-leonardi-gyIRjKPXupE-unsplash.jpg","","","","","","","","","","","","","","","","","","","","","","","","","","","","","","","","","","","","",""
"","rating","","html-slider-response","16","14753","0.0-1.0-13.0","NaN","82292","","167","","","","","50","11","16","Stimuli/Experimental_stims/faces/freddy-kearney-o-ioeoATbIM-unsplash.jpg","","","","","","","","","","","","","","","","","","","","","","","","","","","","","","","","","","","","",""
"","rating","","html-slider-response","17","14913","0.0-1.0-14.0","NaN","82292","","155","","","","","50","12","46","Stimuli/Experimental_stims/objects/mockup-graphics-PNsj6RiHAF4-unsplash.jpg","","","","","","","","","","","","","","","","","","","","","","","","","","","","","","","","","","","","",""
"","rating","","html-slider-response","18","15085","0.0-1.0-15.0","NaN","82292","","167","","","","","50","13","20","Stimuli/Experimental_stims/faces/justin-chen-J7Cf1Gch49E-unsplash.jpg","","","","","","","","","","","","","","","","","","","","","","","","","","","","","","","","","","","","",""
"","rating","","html-slider-response","19","15255","0.0-1.0-16.0","NaN","82292","","165","","","","","50","14","18","Stimuli/Experimental_stims/faces/jessica-radanavong-mrYkTuAesKE-unsplash.jpg","","","","","","","","","","","","","","","","","","","","","","","","","","","","","","","","","","","","",""
"","rating","","html-slider-response","20","15439","0.0-1.0-17.0","NaN","82292","","179","","","","","50","15","42","Stimuli/Experimental_stims/objects/jess-bailey-nOeVi8DsN8U-unsplash.jpg","","","","","","","","","","","","","","","","","","","","","","","","","","","","","","","","","","","","",""
"","rating","","html-slider-response","21","15609","0.0-1.0-18.0","NaN","82292","","166","","","","","50","16","5","Stimuli/Experimental_stims/outdoor_scenes/jeff-king-bJHWJeiHfHc-unsplash.jpg","","","","","","","","","","","","","","","","","","","","","","","","","","","","","","","","","","","","",""
"","rating","","html-slider-response","22","15792","0.0-1.0-19.0","NaN","82292","","178","","","","","50","17","25","Stimuli/Experimental_stims/body_parts/engin-akyurt-Q2rfH3GW39c-unsplash.jpg","","","","","","","","","","","","","","","","","","","","","","","","","","","","","","","","","","","","",""
"","rating","","html-slider-response","23","15964","0.0-1.0-20.0","NaN","82292","","167","","","","","50","18","29","Stimuli/Experimental_stims/body_parts/manuel-schinner-ZwjFuJ7ebpk-unsplash.jpg","","","","","","","","","","","","","","","","","","","","","","","","","","","","","","","","","","","","",""
"","rating","","html-slider-response","24","16147","0.0-1.0-21.0","NaN","82292","","179","","","","","50","19","47","Stimuli/Experimental_stims/objects/ronaldo-arthur-vidal-Cdz_lvnl37k-unsplash.jpg","","","","","","","","","","","","","","","","","","","","","","","","","","","","","","","","","","","","",""
"","rating","","html-slider-response","25","16321","0.0-1.0-22.0","NaN","82292","","169","","","","","50","20","4","Stimuli/Experimental_stims/outdoor_scenes/jarrett-kow-1ZOyYPOBn7I-unsplash.jpg","","","","","","","","","","","","","","","","","","","","","","","","","","","","","","","","","","","","",""
"","rating","","html-slider-response","26","16503","0.0-1.0-23.0","NaN","82292","","178","","","","","50","21","31","Stimuli/Experimental_stims/body_parts/sincerely-media-VN6DbKajo5s-unsplash.jpg","","","","","","","","","","","","","","","","","","","","","","","","","","","","","","","","","","","","",""
"","rating","","html-slider-response","27","16663","0.0-1.0-24.0","NaN","82292","","156","","","","","50","22","44","Stimuli/Experimental_stims/objects/kuiye-chen-NuOGFo4PudE-unsplash.jpg","","","","","","","","","","","","","","","","","","","","","","","","","","","","","","","","","","","","",""
"","rating","","html-slider-response","28","16835","0.0-1.0-25.0","NaN","82292","","167","","","","","50","23","37","Stimuli/Experimental_stims/objects/alexander-andrews-VLGWE_SumrA-unsplash.jpg","","","","","","","","","","","","","","","","","","","","","","","","","","","","","","","","","","","","",""
"","rating","","html-slider-response","29","17007","0.0-1.0-26.0","NaN","82292","","167","","","","","50","24","10","Stimuli/Experimental_stims/outdoor_scenes/shannon-kunkle-dM8INmkyDas-unsplash.jpg","","","","","","","","","","","","","","","","","","","","","","","","","","","","","","","","","","","","",""
"","rating","","html-slider-response","30","17167","0.0-1.0-27.0","NaN","82292","","155","","","","","50","25","40","Stimuli/Experimental_stims/objects/fabian-blank-pElSkGRA2NU-unsplash.jpg","","","","","","","","","","","","","","","","","","","","","","","","","","","","","","","","","","","","",""
"","rating","","html-slider-response","31","17349","0.0-1.0-28.0","NaN","82292","","177","","","","","50","26","9","Stimuli/Experimental_stims/outdoor_scenes/sergey-pesterev-y-b_FOmJXdg-unsplash.jpg","","","","","","","","","","","","","","","","","","","","","","","","","","","","","","","","","","","","",""
"","rating","","html-slider-response","32","17521","0.0-1.0-29.0","NaN","82292","","168","","","","","50","27","41","Stimuli/Experimental_stims/objects/insung-yoon-w2JtIQQXoRU-unsplash.jpg","","","","","","","","","","","","","","","","","","","","","","","","","","","","","","","","","","","","",""
"","rating","","html-slider-response","33","17693","0.0-1.0-30.0","NaN","82292","","167","","","","","50","28","8","Stimuli/Experimental_stims/outdoor_scenes/samsommer-vddccTqwal8-unsplash.jpg","","","","","","","","","","","","","","","","","","","","","","","","","","","","","","","","","","","","",""
"","rating","","html-slider-response","34","17865","0.0-1.0-31.0","NaN","82292","","166","","","","","50","29","3","Stimuli/Experimental_stims/outdoor_scenes/henry-be-NLF6hTe4PAg-unsplash.jpg","","","","","","","","","","","","","","","","","","","","","","","","","","","","","","","","","","","","",""
"","rating","","html-slider-response","35","18038","0.0-1.0-32.0","NaN","82292","","167","","","","","50","30","27","Stimuli/Experimental_stims/body_parts/heike-mintel-i_Gns0ELnLw-unsplash.jpg","","","","","","","","","","","","","","","","","","","","","","","","","","","","","","","","","","","","",""
"","rating","","html-slider-response","36","18231","0.0-1.0-33.0","NaN","82292","","188","","","","","50","31","19","Stimuli/Experimental_stims/faces/joel-mott-LaK153ghdig-unsplash.jpg","","","","","","","","","","","","","","","","","","","","","","","","","","","","","","","","","","","","",""
"","rating","","html-slider-response","37","18391","0.0-1.0-34.0","NaN","82292","","155","","","","","50","32","45","Stimuli/Experimental_stims/objects/leohoho-rngTKHXumy0-unsplash.jpg","","","","","","","","","","","","","","","","","","","","","","","","","","","","","","","","","","","","",""
"","rating","","html-slider-response","38","18576","0.0-1.0-35.0","NaN","82292","","179","","","","","50","33","30","Stimuli/Experimental_stims/body_parts/mika-korhonen-Xodzxosar18-unsplash.jpg","","","","","","","","","","","","","","","","","","","","","","","","","","","","","","","","","","","","",""
"","rating","","html-slider-response","39","18745","0.0-1.0-36.0","NaN","82292","","164","","","","","50","34","21","Stimuli/Experimental_stims/faces/leilani-angel-K84vnnzxmTQ-unsplash.jpg","","","","","","","","","","","","","","","","","","","","","","","","","","","","","","","","","","","","",""
"","rating","","html-slider-response","40","18939","0.0-1.0-37.0","NaN","82292","","189","","","","","50","35","34","Stimuli/Experimental_stims/body_parts/wagner-santos-mBWMvIuVnso-unsplash.jpg","","","","","","","","","","","","","","","","","","","","","","","","","","","","","","","","","","","","",""
"","rating","","html-slider-response","41","19108","0.0-1.0-38.0","NaN","82292","","165","","","","","50","36","35","Stimuli/Experimental_stims/body_parts/wc-so-KH4AAPjb-tI-unsplash.jpg","","","","","","","","","","","","","","","","","","","","","","","","","","","","","","","","","","","","",""
"","rating","","html-slider-response","42","19292","0.0-1.0-39.0","NaN","82292","","179","","","","","50","37","15","Stimuli/Experimental_stims/faces/erik-lucatero-d2MSDujJl2g-unsplash.jpg","","","","","","","","","","","","","","","","","","","","","","","","","","","","","","","","","","","","",""
"","rating","","html-slider-response","43","19477","0.0-1.0-40.0","NaN","82292","","180","","","","","50","38","1","Stimuli/Experimental_stims/outdoor_scenes/ashim-d-silva-S2Q5mdOrrVc-unsplash.jpg","","","","","","","","","","","","","","","","","","","","","","","","","","","","","","","","","","","","",""
"","rating","","html-slider-response","44","19661","0.0-1.0-41.0","NaN","82292","","180","","","","","50","39","22","Stimuli/Experimental_stims/faces/ravi-patel-VMGAbeeJTKo-unsplash.jpg","","","","","","","","","","","","","","","","","","","","","","","","","","","","","","","","","","","","",""
"","rating","","html-slider-response","45","19833","0.0-1.0-42.0","NaN","82292","","167","","","","","50","40","26","Stimuli/Experimental_stims/body_parts/engin-akyurt-x_3gyC42btc-unsplash.jpg","","","","","","","","","","","","","","","","","","","","","","","","","","","","","","","","","","","","",""
"","rating","","html-slider-response","46","20003","0.0-1.0-43.0","NaN","82292","","165","","","","","50","41","0","Stimuli/Experimental_stims/outdoor_scenes/aleksandra-boguslawska-MS7KD9Ti7FQ-unsplash.jpg","","","","","","","","","","","","","","","","","","","","","","","","","","","","","","","","","","","","",""
"","rating","","html-slider-response","47","20163","0.0-1.0-44.0","NaN","82292","","155","","","","","50","42","43","Stimuli/Experimental_stims/objects/jonathan-greenaway-Y4hGgeiFn3s-unsplash.jpg","","","","","","","","","","","","","","","","","","","","","","","","","","","","","","","","","","","","",""
"","rating","","html-slider-response","48","20347","0.0-1.0-45.0","NaN","82292","","179","","","","","50","43","32","Stimuli/Experimental_stims/body_parts/towfiqu-barbhuiya-3AsiVDsZnHg-unsplash.jpg","","","","","","","","","","","","","","","","","","","","","","","","","","","","","","","","","","","","",""
"","rating","","html-slider-response","49","20531","0.0-1.0-46.0","NaN","82292","","179","","","","","50","44","17","Stimuli/Experimental_stims/faces/good-faces-xmSWVeGEnJw-unsplash.jpg","","","","","","","","","","","","","","","","","","","","","","","","","","","","","","","","","","","","",""
"","rating","","html-slider-response","50","20691","0.0-1.0-47.0","NaN","82292","","155","","","","","50","45","6","Stimuli/Experimental_stims/outdoor_scenes/meng-ji-8BH_M-53CyA-unsplash.jpg","","","","","","","","","","","","","","","","","","","","","","","","","","","","","","","","","","","","",""
"","rating","","html-slider-response","51","20873","0.0-1.0-48.0","NaN","82292","","178","","","","","50","46","33","Stimuli/Experimental_stims/body_parts/tucker-good-36skLT5jZcc-unsplash.jpg","","","","","","","","","","","","","","","","","","","","","","","","","","","","","","","","","","","","",""
"","rating","","html-slider-response","52","21033","0.0-1.0-49.0","NaN","82292","","154","","","","","50","47","12","Stimuli/Experimental_stims/faces/aiony-haust-jmATI5Q_YgY-unsplash.jpg","","","","","","","","","","","","","","","","","","","","","","","","","","","","","","","","","","","","",""
"","localizer_instructions","","instructions","53","22829","0.0-2.0-0.0-0.0","NaN","82292","","1763","","[{""page_index"":0,""viewing_time"":1411},{""page_index"":1,""viewing_time"":167},{""page_index"":2,""viewing_time"":185}]","","","","","","","","","","","","","","","","","","","","","","","","","","","","","","","","","","","","","","","","","","",""
"","localizer_comprehension_check","","survey-multi-choice","54","27578","0.0-2.0-0.0-1.0","NaN","82292","","4743","{""Q0"":""True"",""Q1"":""K"",""Q2"":""D""}","","0","","","","","","","","","","","","","","","","","","","","","","","","","","","","","","","","","","","","","","","","","",""
"","","","html-keyboard-response","55","28144","0.0-2.0-1.0","NaN","82292","","561","","","","68","","","","","","","","","","","","","","","","","","","","","","","","","","","","","","","","","","","","","","","","",""
"","localizer","","html-keyboard-response","56","28557","0.0-2.0-2.0-0.0","NaN","82292","","NaN","","","","null","NaN","0","","Stimuli/Practice_stims/Localizer/annie-spratt-g9KFpAfQ5bc-unsplash.jpg","0","NaN","","0","1","0","0.4","0","","","","","","","","","","","","","","","","","","","","","","","","","","","","",""
"","iti_localizer","","html-keyboard-response","57","28866","0.0-2.0-2.0-1.0","NaN","82292","","null","","","","null","","0","","","0","","","","","","0.3","0.4","","","","","","","","","","","","","","","","","","","","","","","","","","","","",""
"","localizer","","html-keyboard-response","58","29275","0.0-2.0-3.0-0.0","NaN","82292","","NaN","","","","null","NaN","1","","Stimuli/Practice_stims/Localizer/becca-tapert-sY5RjMB1KkE-unsplash.jpg","0","NaN","","0","1","0","0.4","0.7","","","","","","","","","","","","","","","","","","","","","","","","","","","","",""
"","iti_localizer","","html-keyboard-response","59","29587","0.0-2.0-3.0-1.0","NaN","82292","","null","","","","null","","1","","","0","","","","","","0.3","1.1","","","","","","","","","","","","","","","","","","","","","","","","","","","","",""
"","localizer","","html-keyboard-response","60","29994","0.0-2.0-4.0-0.0","NaN","82292","","NaN","","","","null","NaN","2","","Stimuli/Practice_stims/Localizer/charl-durand-bsfXvI25iNg-unsplash.jpg","0","NaN","","1","1","0","0.4","1.4000000000000001","","","","","","","","","","","","","","","","","","","","","","","","","","","","",""
"","iti_localizer","","html-keyboard-response","61","30309","0.0-2.0-4.0-1.0","NaN","82292","","null","","","","null","","2","","","0","","","","","","0.3","1.8000000000000003","","","","","","","","","","","","","","","","","","","","","","","","","","","","",""
"","localizer","","html-keyboard-response","62","30723","0.0-2.0-5.0-0.0","NaN","82292","","303","","","","68","0","3","","Stimuli/Practice_stims/Localizer/nizar-albusaidy-B2r2SWAf5CE-unsplash.jpg","0","NaN","","0","0","1","0.4","2.1","","","","","","","","","","","","","","","","","","","","","","","","","","","","",""
"","iti_localizer","","html-keyboard-response","63","31038","0.0-2.0-5.0-1.0","NaN","82292","","null","","","","null","","3","","","0","","","","","","0.3","2.5","","","","","","","","","","","","","","","","","","","","","","","","","","","","",""
"","localizer","","html-keyboard-response","64","31448","0.0-2.0-6.0-0.0","NaN","82292","","NaN","","","","null","NaN","4","","Stimuli/Practice_stims/Localizer/randy-fath-epf1tdtIIkM-unsplash.jpg","0","NaN","","1","1","0","0.4","2.8","","","","","","","","","","","","","","","","","","","","","","","","","","","","",""
"","iti_localizer","","html-keyboard-response","65","31763","0.0-2.0-6.0-1.0","NaN","82292","","null","","","","null","","4","","","0","","","","","","0.3","3.1999999999999997","","","","","","","","","","","","","","","","","","","","","","","","","","","","",""
"","localizer","","html-keyboard-response","66","32168","0.0-2.0-7.0-0.0","NaN","82292","","NaN","","","","null","NaN","5","","Stimuli/Practice_stims/Localizer/yassine-khalfalli-adsQ9d_Cx0c-unsplash.jpg","0","NaN","","0","1","0","0.4","3.4999999999999996","","","","","","","","","","","","","","","","","","","","","","","","","","","","",""
"","iti_localizer","","html-keyboard-response","67","32485","0.0-2.0-7.0-1.0","NaN","82292","","null","","","","null","","5","","","0","","","","","","0.3","3.8999999999999995","","","","","","","","","","","","","","","","","","","","","","","","","","","","",""
"","practice_over","","html-keyboard-response","68","35546","0.0-2.0-7.0-2.0-0.0","NaN","82292","","3057","","","","68","","","","","","","","","","","","","","","","","","","","","","","","","","","","","","","","","","","","","","","","",""
"","start_run","","html-keyboard-response","69","36515","0.0-2.0-7.0-2.0-1.0","NaN","82292","","966","","","","84","","","","","","","","","","","","","","","","","","","","","","","","","","","","","","","","","","","","","","","","",""
"","localizer","","html-keyboard-response","70","36926","0.0-2.0-8.0-0.0","NaN","82292","","NaN","","","","null","NaN","6","","Stimuli/Experimental_stims/localizer/outdoor_scenes/mark-harpur-K2s_YE031CA-unsplash.jpg","1","outdoor_scenes","","0","1","0","0.4","0","","","","","","","","","","","","","","","","","","","","","","","","","","","","",""
"","iti_localizer","","html-keyboard-response","71","37234","0.0-2.0-8.0-1.0","NaN","82292","","null","","","","null","","6","","","1","","","","","","0.3","0.4","","","","","","","","","","","","","","","","","","","","","","","","","","","","",""
"","localizer","","html-keyboard-response","72","37643","0.0-2.0-9.0-0.0","NaN","82292","","NaN","","","","null","NaN","7","","Stimuli/Experimental_stims/localizer/outdoor_scenes/johny-goerend-U_diPCXCBxU-unsplash.jpg","1","outdoor_scenes","","0","1","0","0.4","0.7","","","","","","","","","","","","","","","","","","","","","","","","","","","","",""
"","iti_localizer","","html-keyboard-response","73","37953","0.0-2.0-9.0-1.0","NaN","82292","","null","","","","null","","7","","","1","","","","","","0.3","1.1","","","","","","","","","","","","","","","","","","","","","","","","","","","","",""
"","localizer","","html-keyboard-response","74","38361","0.0-2.0-10.0-0.0","NaN","82292","","NaN","","","","null","NaN","8","","Stimuli/Experimental_stims/localizer/outdoor_scenes/derek-mack-CcRZ4k3c6gA-unsplash.jpg","1","outdoor_scenes","","0","1","0","0.4","1.4000000000000001","","","","","","","","","","","","","","","","","","","","","","","","","","","","",""
"","iti_localizer","","html-keyboard-response","75","38679","0.0-2.0-10.0-1.0","NaN","82292","","null","","","","null","","8","","","1","","","","","","0.3","1.8000000000000003","","","","","","","","","","","","","","","","","","","","","","","","","","","","",""
"","localizer","","html-keyboard-response","76","39089","0.0-2.0-11.0-0.0","NaN","82292","","NaN","","","","null","NaN","9","","Stimuli/Experimental_stims/localizer/outdoor_scenes/neom-THlO6Mkf5uI-unsplash.jpg","1","outdoor_scenes","","0","1","0","0.4","2.1","","","","","","","","","","","","","","","","","","","","","","","","","","","","",""
"","iti_localizer","","html-keyboard-response","77","39407","0.0-2.0-11.0-1.0","NaN","82292","","null","","","","null","","9","","","1","","","","","","0.3","2.5","","","","","","","","","","","","","","","","","","","","","","","","","","","","",""
"","localizer","","html-keyboard-response","78","39813","0.0-2.0-12.0-0.0","NaN","82292","","NaN","","","","null","NaN","10","","Stimuli/Experimental_stims/localizer/outdoor_scenes/kace-rodriguez-p3OzJuT_Dks-unsplash.jpg","1","outdoor_scenes","","0","1","0","0.4","2.8","","","","","","","","","","","","","","","","","","","","","","","","","","","","",""
"","iti_localizer","","html-keyboard-response","79","40123","0.0-2.0-12.0-1.0","NaN","82292","","null","","","","null","","10","","","1","","","","","","0.3","3.1999999999999997","","","","","","","","","","","","","","","","","","","","","","","","","","","","",""
"","localizer","","html-keyboard-response","80","40532","0.0-2.0-13.0-0.0","NaN","82292","","NaN","","","","null","NaN","11","","Stimuli/Experimental_stims/localizer/outdoor_scenes/jay-cai-F_laX9E8CUo-unsplash.jpg","1","outdoor_scenes","","0","1","0","0.4","3.4999999999999996","","","","","","","","","","","","","","","","","","","","","","","","","","","","",""
"","iti_localizer","","html-keyboard-response","81","40846","0.0-2.0-13.0-1.0","NaN","82292","","null","","","","null","","11","","","1","","","","","","0.3","3.8999999999999995","","","","","","","","","","","","","","","","","","","","","","","","","","","","",""
"","localizer","","html-keyboard-response","82","41259","0.0-2.0-14.0-0.0","NaN","82292","","NaN","","","","null","NaN","12","","Stimuli/Experimental_stims/localizer/outdoor_scenes/john-mark-arnold-XNIjmb6Ax04-unsplash.jpg","1","outdoor_scenes","","0","1","0","0.4","4.199999999999999","","","","","","","","","","","","","","","","","","","","","","","","","","","","",""
"","iti_localizer","","html-keyboard-response","83","41566","0.0-2.0-14.0-1.0","NaN","82292","","null","","","","null","","12","","","1","","","","","","0.3","4.6","","","","","","","","","","","","","","","","","","","","","","","","","","","","",""
"","localizer","","html-keyboard-response","84","41982","0.0-2.0-15.0-0.0","NaN","82292","","NaN","","","","null","NaN","13","","Stimuli/Experimental_stims/localizer/outdoor_scenes/dawid-zawila--G3rw6Y02D0-unsplash.jpg","1","outdoor_scenes","","0","1","0","0.4","4.8999999999999995","","","","","","","","","","","","","","","","","","","","","","","","","","","","",""
"","iti_localizer","","html-keyboard-response","85","42292","0.0-2.0-15.0-1.0","NaN","82292","","null","","","","null","","13","","","1","","","","","","0.3","5.3","","","","","","","","","","","","","","","","","","","","","","","","","","","","",""
"","localizer","","html-keyboard-response","86","42701","0.0-2.0-16.0-0.0","NaN","82292","","NaN","","","","null","NaN","14","","Stimuli/Experimental_stims/localizer/outdoor_scenes/darrell-cassell-hoCXpPUMCoE-unsplash.jpg","1","outdoor_scenes","","0","1","0","0.4","5.6","","","","","","","","","","","","","","","","","","","","","","","","","","","","",""
"","iti_localizer","","html-keyboard-response","87","43013","0.0-2.0-16.0-1.0","NaN","82292","","null","","","","null","","14","","","1","","","","","","0.3","6","","","","","","","","","","","","","","","","","","","","","","","","","","","","",""
"","localizer","","html-keyboard-response","88","43428","0.0-2.0-17.0-0.0","NaN","82292","","NaN","","","","null","NaN","15","","Stimuli/Experimental_stims/localizer/outdoor_scenes/kenneth-thewissen-D76DklsG-5U-unsplash.jpg","1","outdoor_scenes","","0","1","0","0.4","6.3","","","","","","","","","","","","","","","","","","","","","","","","","","","","",""
"","iti_localizer","","html-keyboard-response","89","43742","0.0-2.0-17.0-1.0","NaN","82292","","null","","","","null","","15","","","1","","","","","","0.3","6.7","","","","","","","","","","","","","","","","","","","","","","","","","","","","",""
"","localizer","","html-keyboard-response","90","44158","0.0-2.0-18.0-0.0","NaN","82292","","NaN","","","","null","NaN","16","","Stimuli/Experimental_stims/localizer/outdoor_scenes/andres-sanz-uILhNE1VcwA-unsplash.jpg","1","outdoor_scenes","","0","1","0","0.4","7","","","","","","","","","","","","","","","","","","","","","","","","","","","","",""
"","iti_localizer","","html-keyboard-response","91","44466","0.0-2.0-18.0-1.0","NaN","82292","","null","","","","null","","16","","","1","","","","","","0.3","7.4","","","","","","","","","","","","","","","","","","","","","","","","","","","","",""
"","localizer","","html-keyboard-response","92","44877","0.0-2.0-19.0-0.0","NaN","82292","","NaN","","","","null","NaN","17","","Stimuli/Experimental_stims/localizer/outdoor_scenes/keith-hardy-UVyavSwslOg-unsplash.jpg","1","outdoor_scenes","","1","1","0","0.4","7.7","","","","","","","","","","","","","","","","","","","","","","","","","","","","",""
"","iti_localizer","","html-keyboard-response","93","45189","0.0-2.0-19.0-1.0","NaN","82292","","null","","","","null","","17","","","1","","","","","","0.3","8.1","","","","","","","","","","","","","","","","","","","","","","","","","","","","",""
"","localizer","","html-keyboard-response","94","45602","0.0-2.0-20.0-0.0","NaN","82292","","NaN","","","","null","NaN","18","","Stimuli/Experimental_stims/localizer/outdoor_scenes/pascal-debrunner-1WQ5RZuH9xo-unsplash.jpg","1","outdoor_scenes","","0","1","0","0.4","8.4","","","","","","","","","","","","","","","","","","","","","","","","","","","","",""
"","iti_localizer","","html-keyboard-response","95","45917","0.0-2.0-20.0-1.0","NaN","82292","","null","","","","null","","18","","","1","","","","","","0.3","8.8","","","","","","","","","","","","","","","","","","","","","","","","","","","","",""
"","localizer","","html-keyboard-response","96","46332","0.0-2.0-21.0-0.0","NaN","82292","","NaN","","","","null","NaN","19","","Stimuli/Experimental_stims/localizer/outdoor_scenes/jeremy-cai-ucYWe5mzTMU-unsplash.jpg","1","outdoor_scenes","","0","1","0","0.4","9.100000000000001","","","","","","","","","","","","","","","","","","","","","","","","","","","","",""
"","iti_localizer","","html-keyboard-response","97","46638","0.0-2.0-21.0-1.0","NaN","82292","","null","","","","null","","19","","","1","","","","","","0.3","9.500000000000002","","","","","","","","","","","","","","","","","","","","","","","","","","","","",""
"","localizer","","html-keyboard-response","98","47049","0.0-2.0-22.0-0.0","NaN","82292","","NaN","","","","null","NaN","20","","Stimuli/Experimental_stims/localizer/outdoor_scenes/michael-martinelli-mFbrMEVKCkc-unsplash.jpg","1","outdoor_scenes","","0","1","0","0.4","9.800000000000002","","","","","","","","","","","","","","","","","","","","","","","","","","","","",""
"","iti_localizer","","html-keyboard-response","99","47366","0.0-2.0-22.0-1.0","NaN","82292","","null","","","","null","","20","","","1","","","","","","0.3","10.200000000000003","","","","","","","","","","","","","","","","","","","","","","","","","","","","",""
"","localizer","","html-keyboard-response","100","47778","0.0-2.0-23.0-0.0","NaN","82292","","NaN","","","","null","NaN","21","","Stimuli/Experimental_stims/localizer/outdoor_scenes/luca-bravo-VowIFDxogG4-unsplash.jpg","1","outdoor_scenes","","1","1","0","0.4","10.500000000000004","","","","","","","","","","","","","","","","","","","","","","","","","","","","",""
"","iti_localizer","","html-keyboard-response","101","48094","0.0-2.0-23.0-1.0","NaN","82292","","null","","","","null","","21","","","1","","","","","","0.3","10.900000000000004","","","","","","","","","","","","","","","","","","","","","","","","","","","","",""
"","localizer","","html-keyboard-response","102","48510","0.0-2.0-24.0-0.0","NaN","82292","","NaN","","","","null","NaN","22","","Stimuli/Experimental_stims/localizer/outdoor_scenes/quino-al-vmZ2DehWQ3Q-unsplash.jpg","1","outdoor_scenes","","0","1","0","0.4","11.200000000000005","","","","","","","","","","","","","","","","","","","","","","","","","","","","",""
"","iti_localizer","","html-keyboard-response","103","48823","0.0-2.0-24.0-1.0","NaN","82292","","null","","","","null","","22","","","1","","","","","","0.3","11.600000000000005","","","","","","","","","","","","","","","","","","","","","","","","","","","","",""
"","localizer","","html-keyboard-response","104","49238","0.0-2.0-25.0-0.0","NaN","82292","","NaN","","","","null","NaN","23","","Stimuli/Experimental_stims/localizer/outdoor_scenes/ken-cheung-KonWFWUaAuk-unsplash.jpg","1","outdoor_scenes","","0","1","0","0.4","11.900000000000006","","","","","","","","","","","","","","","","","","","","","","","","","","","","",""
"","iti_localizer","","html-keyboard-response","105","49550","0.0-2.0-25.0-1.0","NaN","82292","","null","","","","null","","23","","","1","","","","","","0.3","12.300000000000006","","","","","","","","","","","","","","","","","","","","","","","","","","","","",""
"","localizer","","html-keyboard-response","106","49964","0.0-2.0-26.0-0.0","NaN","82292","","NaN","","","","null","NaN","24","","Stimuli/Experimental_stims/localizer/outdoor_scenes/damian-denis-D8R_txR_0PE-unsplash.jpg","1","outdoor_scenes","","0","1","0","0.4","12.600000000000007","","","","","","","","","","","","","","","","","","","","","","","","","","","","",""
"","iti_localizer","","html-keyboard-response","107","50277","0.0-2.0-26.0-1.0","NaN","82292","","null","","","","null","","24","","","1","","","","","","0.3","13.000000000000007","","","","","","","","","","","","","","","","","","","","","","","","","","","","",""
"","localizer","","html-keyboard-response","108","50694","0.0-2.0-27.0-0.0","NaN","82292","","NaN","","","","null","NaN","25","","Stimuli/Experimental_stims/localizer/outdoor_scenes/damian-patkowski-T-LfvX-7IVg-unsplash.jpg","1","outdoor_scenes","","0","1","0","0.4","13.300000000000008","","","","","","","","","","","","","","","","","","","","","","","","","","","","",""
"","iti_localizer","","html-keyboard-response","109","51006","0.0-2.0-27.0-1.0","NaN","82292","","null","","","","null","","25","","","1","","","","","","14","13.700000000000008","","","","","","","","","","","","","","","","","","","","","","","","","","","","",""
"","localizer","","html-keyboard-response","110","51419","0.0-2.0-28.0-0.0","NaN","82292","","NaN","","","","null","NaN","26","","Stimuli/Experimental_stims/localizer/objects/ian-talmacs-ugqU0a4P18U-unsplash.jpg","1","objects","","0","1","0","0.4","27.70000000000001","","","","","","","","","","","","","","","","","","","","","","","","","","","","",""
"","iti_localizer","","html-keyboard-response","111","51734","0.0-2.0-28.0-1.0","NaN","82292","","null","","","","null","","26","","","1","","","","","","0.3","28.10000000000001","","","","","","","","","","","","","","","","","","","","","","","","","","","","",""
"","localizer","","html-keyboard-response","112","52148","0.0-2.0-29.0-0.0","NaN","82292","","NaN","","","","null","NaN","27","","Stimuli/Experimental_stims/localizer/objects/lance-reis-v0FYj9iioQg-unsplash.jpg","1","objects","","0","1","0","0.4","28.40000000000001","","","","","","","","","","","","","","","","","","","","","","","","","","","","",""
"","iti_localizer","","html-keyboard-response","113","52461","0.0-2.0-29.0-1.0","NaN","82292","","null","","","","null","","27","","","1","","","","","","0.3","28.800000000000008","","","","","","","","","","","","","","","","","","","","","","","","","","","","",""
"","localizer","","html-keyboard-response","114","52878","0.0-2.0-30.0-0.0","NaN","82292","","NaN","","","","null","NaN","28","","Stimuli/Experimental_stims/localizer/objects/saif71-com-VIKdvmGUhq8-unsplash.jpg","1","objects","","0","1","0","0.4","29.10000000000001","","","","","","","","","","","","","","","","","","","","","","","","","","","","",""
"","iti_localizer","","html-keyboard-response","115","53188","0.0-2.0-30.0-1.0","NaN","82292","","null","","","","null","","28","","","1","","","","","","0.3","29.500000000000007","","","","","","","","","","","","","","","","","","","","","","","","","","","","",""
"","localizer","","html-keyboard-response","116","53606","0.0-2.0-31.0-0.0","NaN","82292","","NaN","","","","null","NaN","29","","Stimuli/Experimental_stims/localizer/objects/quino-al-8gWEAAXJjtI-unsplash.jpg","1","objects","","1","1","0","0.4","29.800000000000008","","","","","","","","","","","","","","","","","","","","","","","","","","","","",""
"","iti_localizer","","html-keyboard-response","117","53913","0.0-2.0-31.0-1.0","NaN","82292","","null","","","","null","","29","","","1","","","","","","0.3","30.200000000000006","","","","","","","","","","","","","","","","","","","","","","","","","","","","",""
"","localizer","","html-keyboard-response","118","54321","0.0-2.0-32.0-0.0","NaN","82292","","NaN","","","","null","NaN","30","","Stimuli/Experimental_stims/localizer/objects/dario-mendez-WmF_XLF4-Rs-unsplash.jpg","1","objects","","0","1","0","0.4","30.500000000000007","","","","","","","","","","","","","","","","","","","","","","","","","","","","",""
"","iti_localizer","","html-keyboard-response","119","54636","0.0-2.0-32.0-1.0","NaN","82292","","null","","","","null","","30","","","1","","","","","","0.3","30.900000000000006","","","","","","","","","","","","","","","","","","","","","","","","","","","","",""
"","localizer","","html-keyboard-response","120","55050","0.0-2.0-33.0-0.0","NaN","82292","","NaN","","","","null","NaN","31","","Stimuli/Experimental_stims/localizer/objects/charlesdeluvio-RDjZh9dqlP4-unsplash.jpg","1","objects","","0","1","0","0.4","31.200000000000006","","","","","","","","","","","","","","","","","","","","","","","","","","","","",""
"","iti_localizer","","html-keyboard-response","121","55366","0.0-2.0-33.0-1.0","NaN","82292","","null","","","","null","","31","","","1","","","","","","0.3","31.600000000000005","","","","","","","","","","","","","","","","","","","","","","","","","","","","",""
"","localizer","","html-keyboard-response","122","55778","0.0-2.0-34.0-0.0","NaN","82292","","NaN","","","","null","NaN","32","","Stimuli/Experimental_stims/localizer/objects/quino-al-4SNUcHPiC8c-unsplash.jpg","1","objects","","0","1","0","0.4","31.900000000000006","","","","","","","","","","","","","","","","","","","","","","","","","","","","",""
"","iti_localizer","","html-keyboard-response","123","56094","0.0-2.0-34.0-1.0","NaN","82292","","null","","","","null","","32","","","1","","","","","","0.3","32.300000000000004","","","","","","","","","","","","","","","","","","","","","","","","","","","","",""
"","localizer","","html-keyboard-response","124","56508","0.0-2.0-35.0-0.0","NaN","82292","","NaN","","","","null","NaN","33","","Stimuli/Experimental_stims/localizer/objects/mulyadi-tWp0VSlSdMI-unsplash.jpg","1","objects","","0","1","0","0.4","32.6","","","","","","","","","","","","","","","","","","","","","","","","","","","","",""
"","iti_localizer","","html-keyboard-response","125","56821","0.0-2.0-35.0-1.0","NaN","82292","","null","","","","null","","33","","","1","","","","","","0.3","33","","","","","","","","","","","","","","","","","","","","","","","","","","","","",""
"","localizer","","html-keyboard-response","126","57234","0.0-2.0-36.0-0.0","NaN","82292","","NaN","","","","null","NaN","34","","Stimuli/Experimental_stims/localizer/objects/recha-oktaviani-t__61ap00Mc-unsplash.jpg","1","objects","","0","1","0","0.4","33.3","","","","","","","","","","","","","","","","","","","","","","","","","","","","",""
"","iti_localizer","","html-keyboard-response","127","57550","0.0-2.0-36.0-1.0","NaN","82292","","null","","","","null","","34","","","1","","","","","","0.3","33.699999999999996","","","","","","","","","","","","","","","","","","","","","","","","","","","","",""
"","localizer","","html-keyboard-response","128","57962","0.0-2.0-37.0-0.0","NaN","82292","","NaN","","","","null","NaN","35","","Stimuli/Experimental_stims/localizer/objects/sam-moghadam-khamseh-L_7MQsHl_aU-unsplash.jpg","1","objects","","1","1","0","0.4","33.99999999999999","","","","","","","","","","","","","","","","","","","","","","","","","","","","",""
"","iti_localizer","","html-keyboard-response","129","58277","0.0-2.0-37.0-1.0","NaN","82292","","null","","","","null","","35","","","1","","","","","","0.3","34.39999999999999","","","","","","","","","","","","","","","","","","","","","","","","","","","","",""
"","localizer","","html-keyboard-response","130","58691","0.0-2.0-38.0-0.0","NaN","82292","","NaN","","","","null","NaN","36","","Stimuli/Experimental_stims/localizer/objects/ana-9GmAaEMMKho-unsplash.jpg","1","objects","","0","1","0","0.4","34.69999999999999","","","","","","","","","","","","","","","","","","","","","","","","","","","","",""
"","iti_localizer","","html-keyboard-response","131","59004","0.0-2.0-38.0-1.0","NaN","82292","","null","","","","null","","36","","","1","","","","","","0.3","35.09999999999999","","","","","","","","","","","","","","","","","","","","","","","","","","","","",""
"","localizer","","html-keyboard-response","132","59413","0.0-2.0-39.0-0.0","NaN","82292","","NaN","","","","null","NaN","37","","Stimuli/Experimental_stims/localizer/objects/dan-cristian-padure-ezoshbcxWrM-unsplash.jpg","1","objects","","0","1","0","0.4","35.399999999999984","","","","","","","","","","","","","","","","","","","","","","","","","","","","",""
"","iti_localizer","","html-keyboard-response","133","59725","0.0-2.0-39.0-1.0","NaN","82292","","null","","","","null","","37","","","1","","","","","","0.3","35.79999999999998","","","","","","","","","","","","","","","","","","","","","","","","","","","","",""
"","localizer","","html-keyboard-response","134","60141","0.0-2.0-40.0-0.0","NaN","82292","","NaN","","","","null","NaN","38","","Stimuli/Experimental_stims/localizer/objects/mockup-graphics-Pj2PY-E-LfM-unsplash.jpg","1","objects","","0","1","0","0.4","36.09999999999998","","","","","","","","","","","","","","","","","","","","","","","","","","","","",""
"","iti_localizer","","html-keyboard-response","135","60451","0.0-2.0-40.0-1.0","NaN","82292","","null","","","","null","","38","","","1","","","","","","0.3","36.49999999999998","","","","","","","","","","","","","","","","","","","","","","","","","","","","",""
"","localizer","","html-keyboard-response","136","60858","0.0-2.0-41.0-0.0","NaN","82292","","NaN","","","","null","NaN","39","","Stimuli/Experimental_stims/localizer/objects/oriento-maVIpNNtmlQ-unsplash.jpg","1","objects","","0","1","0","0.4","36.799999999999976","","","","","","","","","","","","","","","","","","","","","","","","","","","","",""
"","iti_localizer","","html-keyboard-response","137","61171","0.0-2.0-41.0-1.0","NaN","82292","","null","","","","null","","39","","","1","","","","","","0.3","37.199999999999974","","","","","","","","","","","","","","","","","","","","","","","","","","","","",""
"","localizer","","html-keyboard-response","138","61581","0.0-2.0-42.0-0.0","NaN","82292","","NaN","","","","null","NaN","40","","Stimuli/Experimental_stims/localizer/objects/yoann-siloine-_T4w3JDm6ug-unsplash.jpg","1","objects","","0","1","0","0.4","37.49999999999997","","","","","","","","","","","","","","","","","","","","","","","","","","","","",""
"","iti_localizer","","html-keyboard-response","139","61894","0.0-2.0-42.0-1.0","NaN","82292","","null","","","","null","","40","","","1","","","","","","0.3","37.89999999999997","","","","","","","","","","","","","","","","","","","","","","","","","","","","",""
"","localizer","","html-keyboard-response","140","62309","0.0-2.0-43.0-0.0","NaN","82292","","NaN","","","","null","NaN","41","","Stimuli/Experimental_stims/localizer/objects/quaritsch-photography-lZ8onQ1wuY8-unsplash.jpg","1","objects","","0","1","0","0.4","38.19999999999997","","","","","","","","","","","","","","","","","","","","","","","","","","","","",""
"","iti_localizer","","html-keyboard-response","141","62621","0.0-2.0-43.0-1.0","NaN","82292","","null","","","","null","","41","","","1","","","","","","0.3","38.599999999999966","","","","","","","","","","","","","","","","","","","","","","","","","","","","",""
"","localizer","","html-keyboard-response","142","63037","0.0-2.0-44.0-0.0","NaN","82292","","NaN","","","","null","NaN","42","","Stimuli/Experimental_stims/localizer/objects/ales-krivec-ZMZHcvIVgbg-unsplash.jpg","1","objects","","0","1","0","0.4","38.89999999999996","","","","","","","","","","","","","","","","","","","","","","","","","","","","",""
"","iti_localizer","","html-keyboard-response","143","63348","0.0-2.0-44.0-1.0","NaN","82292","","null","","","","null","","42","","","1","","","","","","0.3","39.29999999999996","","","","","","","","","","","","","","","","","","","","","","","","","","","","",""
"","localizer","","html-keyboard-response","144","63754","0.0-2.0-45.0-0.0","NaN","82292","","NaN","","","","null","NaN","43","","Stimuli/Experimental_stims/localizer/objects/carlos-felipe-ramirez-mesa-HW7bfB3ERSQ-unsplash.jpg","1","objects","","0","1","0","0.4","39.59999999999996","","","","","","","","","","","","","","","","","","","","","","","","","","","","",""
"","iti_localizer","","html-keyboard-response","145","64068","0.0-2.0-45.0-1.0","NaN","82292","","null","","","","null","","43","","","1","","","","","","0.3","39.99999999999996","","","","","","","","","","","","","","","","","","","","","","","","","","","","",""
"","localizer","","html-keyboard-response","146","64478","0.0-2.0-46.0-0.0","NaN","82292","","NaN","","","","null","NaN","44","","Stimuli/Experimental_stims/localizer/objects/nordwood-themes-nDd3dIkkOLo-unsplash.jpg","1","objects","","0","1","0","0.4","40.299999999999955","","","","","","","","","","","","","","","","","","","","","","","","","","","","",""
"","iti_localizer","","html-keyboard-response","147","64785","0.0-2.0-46.0-1.0","NaN","82292","","null","","","","null","","44","","","1","","","","","","0.3","40.69999999999995","","","","","","","","","","","","","","","","","","","","","","","","","","","","",""
"","localizer","","html-keyboard-response","148","65194","0.0-2.0-47.0-0.0","NaN","82292","","NaN","","","","null","NaN","45","","Stimuli/Experimental_stims/localizer/objects/jonny-caspari-wsvCC6UyKjs-unsplash.jpg","1","objects","","0","1","0","0.4","40.99999999999995","","","","","","","","","","","","","","","","","","","","","","","","","","","","",""
"","iti_localizer","","html-keyboard-response","149","65508","0.0-2.0-47.0-1.0","NaN","82292","","null","","","","null","","45","","","1","","","","","","14","41.39999999999995","","","","","","","","","","","","","","","","","","","","","","","","","","","","",""
"","localizer","","html-keyboard-response","150","65915","0.0-2.0-48.0-0.0","NaN","82292","","NaN","","","","null","NaN","46","","Stimuli/Experimental_stims/localizer/body_parts/femme-spirit-RGYBDUHYbyM-unsplash.jpg","1","body_parts","","1","1","0","0.4","55.39999999999995","","","","","","","","","","","","","","","","","","","","","","","","","","","","",""
"","iti_localizer","","html-keyboard-response","151","66228","0.0-2.0-48.0-1.0","NaN","82292","","null","","","","null","","46","","","1","","","","","","0.3","55.79999999999995","","","","","","","","","","","","","","","","","","","","","","","","","","","","",""
"","localizer","","html-keyboard-response","152","66643","0.0-2.0-49.0-0.0","NaN","82292","","NaN","","","","null","NaN","47","","Stimuli/Experimental_stims/localizer/body_parts/danie-franco-jyyNiSEcCl4-unsplash.jpg","1","body_parts","","0","1","0","0.4","56.099999999999945","","","","","","","","","","","","","","","","","","","","","","","","","","","","",""
"","iti_localizer","","html-keyboard-response","153","66956","0.0-2.0-49.0-1.0","NaN","82292","","null","","","","null","","47","","","1","","","","","","0.3","56.49999999999994","","","","","","","","","","","","","","","","","","","","","","","","","","","","",""
"","localizer","","html-keyboard-response","154","67362","0.0-2.0-50.0-0.0","NaN","82292","","NaN","","","","null","NaN","48","","Stimuli/Experimental_stims/localizer/body_parts/nadine-shaabana-ypyaaEf2ntM-unsplash.jpg","1","body_parts","","0","1","0","0.4","56.79999999999994","","","","","","","","","","","","","","","","","","","","","","","","","","","","",""
"","iti_localizer","","html-keyboard-response","155","67678","0.0-2.0-50.0-1.0","NaN","82292","","null","","","","null","","48","","","1","","","","","","0.3","57.19999999999994","","","","","","","","","","","","","","","","","","","","","","","","","","","","",""
"","localizer","","html-keyboard-response","156","68095","0.0-2.0-51.0-0.0","NaN","82292","","NaN","","","","null","NaN","49","","Stimuli/Experimental_stims/localizer/body_parts/helen-ast-l2iY5Sh0mTg-unsplash.jpg","1","body_parts","","0","1","0","0.4","57.499999999999936","","","","","","","","","","","","","","","","","","","","","","","","","","","","",""
"","iti_localizer","","html-keyboard-response","157","68405","0.0-2.0-51.0-1.0","NaN","82292","","null","","","","null","","49","","","1","","","","","","0.3","57.899999999999935","","","","","","","","","","","","","","","","","","","","","","","","","","","","",""
"","localizer","","html-keyboard-response","158","68822","0.0-2.0-52.0-0.0","NaN","82292","","NaN","","","","null","NaN","50","","Stimuli/Experimental_stims/localizer/body_parts/sincerely-media-Q7qRyaurQfo-unsplash.jpg","1","body_parts","","0","1","0","0.4","58.19999999999993","","","","","","","","","","","","","","","","","","","","","","","","","","","","",""
"","iti_localizer","","html-keyboard-response","159","69132","0.0-2.0-52.0-1.0","NaN","82292","","null","","","","null","","50","","","1","","","","","","0.3","58.59999999999993","","","","","","","","","","","","","","","","","","","","","","","","","","","","",""
"","localizer","","html-keyboard-response","160","69542","0.0-2.0-53.0-0.0","NaN","82292","","NaN","","","","null","NaN","51","","Stimuli/Experimental_stims/localizer/body_parts/sandra-seitamaa-YCc_YAAhY3I-unsplash.jpg","1","body_parts","","0","1","0","0.4","58.89999999999993","","","","","","","","","","","","","","","","","","","","","","","","","","","","",""
"","iti_localizer","","html-keyboard-response","161","69855","0.0-2.0-53.0-1.0","NaN","82292","","null","","","","null","","51","","","1","","","","","","0.3","59.299999999999926","","","","","","","","","","","","","","","","","","","","","","","","","","","","",""
"","localizer","","html-keyboard-response","162","70267","0.0-2.0-54.0-0.0","NaN","82292","","NaN","","","","null","NaN","52","","Stimuli/Experimental_stims/localizer/body_parts/i-am_nah--S4OsO0c6Ts-unsplash.jpg","1","body_parts","","0","1","0","0.4","59.59999999999992","","","","","","","","","","","","","","","","","","","","","","","","","","","","",""
"","iti_localizer","","html-keyboard-response","163","70579","0.0-2.0-54.0-1.0","NaN","82292","","null","","","","null","","52","","","1","","","","","","0.3","59.99999999999992","","","","","","","","","","","","","","","","","","","","","","","","","","","","",""
"","localizer","","html-keyboard-response","164","70986","0.0-2.0-55.0-0.0","NaN","82292","","NaN","","","","null","NaN","53","","Stimuli/Experimental_stims/localizer/body_parts/nick-page-WTNmgJtwzGI-unsplash.jpg","1","body_parts","","0","1","0","0.4","60.29999999999992","","","","","","","","","","","","","","","","","","","","","","","","","","","","",""
"","iti_localizer","","html-keyboard-response","165","71303","0.0-2.0-55.0-1.0","NaN","82292","","null","","","","null","","53","","","1","","","","","","0.3","60.69999999999992","","","","","","","","","","","","","","","","","","","","","","","","","","","","",""
"","localizer","","html-keyboard-response","166","71717","0.0-2.0-56.0-0.0","NaN","82292","","NaN","","","","null","NaN","54","","Stimuli/Experimental_stims/localizer/body_parts/sina-rezakhani-d1gQi0Jl05U-unsplash (1).jpg","1","body_parts","","0","1","0","0.4","60.999999999999915","","","","","","","","","","","","","","","","","","","","","","","","","","","","",""
"","iti_localizer","","html-keyboard-response","167","72030","0.0-2.0-56.0-1.0","NaN","82292","","null","","","","null","","54","","","1","","","","","","0.3","61.39999999999991","","","","","","","","","","","","","","","","","","","","","","","","","","","","",""
"","localizer","","html-keyboard-response","168","72446","0.0-2.0-57.0-0.0","NaN","82292","","NaN","","","","null","NaN","55","","Stimuli/Experimental_stims/localizer/body_parts/lucaxx-freire-CacZwMexYdk-unsplash.jpg","1","body_parts","","0","1","0","0.4","61.69999999999991","","","","","","","","","","","","","","","","","","","","","","","","","","","","",""
"","iti_localizer","","html-keyboard-response","169","72758","0.0-2.0-57.0-1.0","NaN","82292","","null","","","","null","","55","","","1","","","","","","0.3","62.09999999999991","","","","","","","","","","","","","","","","","","","","","","","","","","","","",""
"","localizer","","html-keyboard-response","170","73176","0.0-2.0-58.0-0.0","NaN","82292","","NaN","","","","null","NaN","56","","Stimuli/Experimental_stims/localizer/body_parts/toan-nguyen-VIeLuUFzesg-unsplash.jpg","1","body_parts","","0","1","0","0.4","62.399999999999906","","","","","","","","","","","","","","","","","","","","","","","","","","","","",""
"","iti_localizer","","html-keyboard-response","171","73483","0.0-2.0-58.0-1.0","NaN","82292","","null","","","","null","","56","","","1","","","","","","0.3","62.799999999999905","","","","","","","","","","","","","","","","","","","","","","","","","","","","",""
"","localizer","","html-keyboard-response","172","73894","0.0-2.0-59.0-0.0","NaN","82292","","NaN","","","","null","NaN","57","","Stimuli/Experimental_stims/localizer/body_parts/billie-5OXE3KjDEfI-unsplash.jpg","1","body_parts","","0","1","0","0.4","63.0999999999999","","","","","","","","","","","","","","","","","","","","","","","","","","","","",""
"","iti_localizer","","html-keyboard-response","173","74207","0.0-2.0-59.0-1.0","NaN","82292","","null","","","","null","","57","","","1","","","","","","0.3","63.4999999999999","","","","","","","","","","","","","","","","","","","","","","","","","","","","",""
"","localizer","","html-keyboard-response","174","74621","0.0-2.0-60.0-0.0","NaN","82292","","NaN","","","","null","NaN","58","","Stimuli/Experimental_stims/localizer/body_parts/nihal-karkala-LlOfbQD-IJ0-unsplash.jpg","1","body_parts","","0","1","0","0.4","63.7999999999999","","","","","","","","","","","","","","","","","","","","","","","","","","","","",""
"","iti_localizer","","html-keyboard-response","175","74933","0.0-2.0-60.0-1.0","NaN","82292","","null","","","","null","","58","","","1","","","","","","0.3","64.1999999999999","","","","","","","","","","","","","","","","","","","","","","","","","","","","",""
"","localizer","","html-keyboard-response","176","75351","0.0-2.0-61.0-0.0","NaN","82292","","NaN","","","","null","NaN","59","","Stimuli/Experimental_stims/localizer/body_parts/callum-skelton-3KLMq7y46nA-unsplash.jpg","1","body_parts","","0","1","0","0.4","64.4999999999999","","","","","","","","","","","","","","","","","","","","","","","","","","","","",""
"","iti_localizer","","html-keyboard-response","177","75660","0.0-2.0-61.0-1.0","NaN","82292","","null","","","","null","","59","","","1","","","","","","0.3","64.8999999999999","","","","","","","","","","","","","","","","","","","","","","","","","","","","",""
"","localizer","","html-keyboard-response","178","76066","0.0-2.0-62.0-0.0","NaN","82292","","NaN","","","","null","NaN","60","","Stimuli/Experimental_stims/localizer/body_parts/jasper-garratt-Ng_Kl7K6V8Y-unsplash.jpg","1","body_parts","","0","1","0","0.4","65.1999999999999","","","","","","","","","","","","","","","","","","","","","","","","","","","","",""
"","iti_localizer","","html-keyboard-response","179","76379","0.0-2.0-62.0-1.0","NaN","82292","","null","","","","null","","60","","","1","","","","","","0.3","65.59999999999991","","","","","","","","","","","","","","","","","","","","","","","","","","","","",""
"","localizer","","html-keyboard-response","180","76789","0.0-2.0-63.0-0.0","NaN","82292","","NaN","","","","null","NaN","61","","Stimuli/Experimental_stims/localizer/body_parts/megan-menegay-UojxG_BJxnI-unsplash.jpg","1","body_parts","","0","1","0","0.4","65.8999999999999","","","","","","","","","","","","","","","","","","","","","","","","","","","","",""
"","iti_localizer","","html-keyboard-response","181","77102","0.0-2.0-63.0-1.0","NaN","82292","","null","","","","null","","61","","","1","","","","","","0.3","66.29999999999991","","","","","","","","","","","","","","","","","","","","","","","","","","","","",""
"","localizer","","html-keyboard-response","182","77516","0.0-2.0-64.0-0.0","NaN","82292","","NaN","","","","null","NaN","62","","Stimuli/Experimental_stims/localizer/body_parts/louis-hansel-FjKTMRTQYAs-unsplash.jpg","1","body_parts","","0","1","0","0.4","66.59999999999991","","","","","","","","","","","","","","","","","","","","","","","","","","","","",""
"","iti_localizer","","html-keyboard-response","183","77829","0.0-2.0-64.0-1.0","NaN","82292","","null","","","","null","","62","","","1","","","","","","0.3","66.99999999999991","","","","","","","","","","","","","","","","","","","","","","","","","","","","",""
"","localizer","","html-keyboard-response","184","78246","0.0-2.0-65.0-0.0","NaN","82292","","NaN","","","","null","NaN","63","","Stimuli/Experimental_stims/localizer/body_parts/xavier-foucrier-dLZUNHsT8vo-unsplash.jpg","1","body_parts","","0","1","0","0.4","67.29999999999991","","","","","","","","","","","","","","","","","","","","","","","","","","","","",""
"","iti_localizer","","html-keyboard-response","185","78559","0.0-2.0-65.0-1.0","NaN","82292","","null","","","","null","","63","","","1","","","","","","0.3","67.69999999999992","","","","","","","","","","","","","","","","","","","","","","","","","","","","",""
"","localizer","","html-keyboard-response","186","78972","0.0-2.0-66.0-0.0","NaN","82292","","NaN","","","","null","NaN","64","","Stimuli/Experimental_stims/localizer/body_parts/debby-hudson--B_757qSA4k-unsplash.jpg","1","body_parts","","0","1","0","0.4","67.99999999999991","","","","","","","","","","","","","","","","","","","","","","","","","","","","",""
"","iti_localizer","","html-keyboard-response","187","79284","0.0-2.0-66.0-1.0","NaN","82292","","null","","","","null","","64","","","1","","","","","","0.3","68.39999999999992","","","","","","","","","","","","","","","","","","","","","","","","","","","","",""
"","localizer","","html-keyboard-response","188","79693","0.0-2.0-67.0-0.0","NaN","82292","","NaN","","","","null","NaN","65","","Stimuli/Experimental_stims/localizer/body_parts/freestocks-qw9LFf5T790-unsplash.jpg","1","body_parts","","1","1","0","0.4","68.69999999999992","","","","","","","","","","","","","","","","","","","","","","","","","","","","",""
"","iti_localizer","","html-keyboard-response","189","80003","0.0-2.0-67.0-1.0","NaN","82292","","null","","","","null","","65","","","1","","","","","","14","69.09999999999992","","","","","","","","","","","","","","","","","","","","","","","","","","","","",""
"","localizer","","html-keyboard-response","190","80414","0.0-2.0-68.0-0.0","NaN","82292","","NaN","","","","null","NaN","66","","Stimuli/Experimental_stims/localizer/faces/aleksandar-popovski-Jy4ELSGPHTc-unsplash.jpg","1","faces","","0","1","0","0.4","83.09999999999992","","","","","","","","","","","","","","","","","","","","","","","","","","","","",""
"","iti_localizer","","html-keyboard-response","191","80727","0.0-2.0-68.0-1.0","NaN","82292","","null","","","","null","","66","","","1","","","","","","0.3","83.49999999999993","","","","","","","","","","","","","","","","","","","","","","","","","","","","",""
"","localizer","","html-keyboard-response","192","81143","0.0-2.0-69.0-0.0","NaN","82292","","NaN","","","","null","NaN","67","","Stimuli/Experimental_stims/localizer/faces/whereslugo-zl_fPgiwduo-unsplash.jpg","1","faces","","0","1","0","0.4","83.79999999999993","","","","","","","","","","","","","","","","","","","","","","","","","","","","",""
"","iti_localizer","","html-keyboard-response","193","81455","0.0-2.0-69.0-1.0","NaN","82292","","null","","","","null","","67","","","1","","","","","","0.3","84.19999999999993","","","","","","","","","","","","","","","","","","","","","","","","","","","","",""
"","localizer","","html-keyboard-response","194","81872","0.0-2.0-70.0-0.0","NaN","82292","","NaN","","","","null","NaN","68","","Stimuli/Experimental_stims/localizer/faces/jurica-koletic-7YVZYZeITc8-unsplash.jpg","1","faces","","0","1","0","0.4","84.49999999999993","","","","","","","","","","","","","","","","","","","","","","","","","","","","",""
"","iti_localizer","","html-keyboard-response","195","82180","0.0-2.0-70.0-1.0","NaN","82292","","null","","","","null","","68","","","1","","","","","","0.3","84.89999999999993","","","","","","","","","","","","","","","","","","","","","","","","","","","","",""
"","localizer","","html-keyboard-response","196","82586","0.0-2.0-71.0-0.0","NaN","82292","","NaN","","","","null","NaN","69","","Stimuli/Experimental_stims/localizer/faces/midas-hofstra-tidSLv-UaNs-unsplash.jpg","1","faces","","0","1","0","0.4","85.19999999999993","","","","","","","","","","","","","","","","","","","","","","","","","","","","",""
"","iti_localizer","","html-keyboard-response","197","82894","0.0-2.0-71.0-1.0","NaN","82292","","null","","","","null","","69","","","1","","","","","","0.3","85.59999999999994","","","","","","","","","","","","","","","","","","","","","","","","","","","","",""
"","localizer","","html-keyboard-response","198","83308","0.0-2.0-72.0-0.0","NaN","82292","","NaN","","","","null","NaN","70","","Stimuli/Experimental_stims/localizer/faces/olena-sergienko-0TSd6uCKTKc-unsplash.jpg","1","faces","","0","1","0","0.4","85.89999999999993","","","","","","","","","","","","","","","","","","","","","","","","","","","","",""
"","iti_localizer","","html-keyboard-response","199","83619","0.0-2.0-72.0-1.0","NaN","82292","","null","","","","null","","70","","","1","","","","","","0.3","86.29999999999994","","","","","","","","","","","","","","","","","","","","","","","","","","","","",""
"","localizer","","html-keyboard-response","200","84027","0.0-2.0-73.0-0.0","NaN","82292","","NaN","","","","null","NaN","71","","Stimuli/Experimental_stims/localizer/faces/binh-ly-k_4A59MzZTY-unsplash.jpg","1","faces","","0","1","0","0.4","86.59999999999994","","","","","","","","","","","","","","","","","","","","","","","","","","","","",""
"","iti_localizer","","html-keyboard-response","201","84345","0.0-2.0-73.0-1.0","NaN","82292","","null","","","","null","","71","","","1","","","","","","0.3","86.99999999999994","","","","","","","","","","","","","","","","","","","","","","","","","","","","",""
"","localizer","","html-keyboard-response","202","84760","0.0-2.0-74.0-0.0","NaN","82292","","NaN","","","","null","NaN","72","","Stimuli/Experimental_stims/localizer/faces/pavel-anoshin-d0peGya6R5Y-unsplash.jpg","1","faces","","0","1","0","0.4","87.29999999999994","","","","","","","","","","","","","","","","","","","","","","","","","","","","",""
"","iti_localizer","","html-keyboard-response","203","85065","0.0-2.0-74.0-1.0","NaN","82292","","null","","","","null","","72","","","1","","","","","","0.3","87.69999999999995","","","","","","","","","","","","","","","","","","","","","","","","","","","","",""
"","localizer","","html-keyboard-response","204","85479","0.0-2.0-75.0-0.0","NaN","82292","","NaN","","","","null","NaN","73","","Stimuli/Experimental_stims/localizer/faces/jake-nackos-IF9TK5Uy-KI-unsplash.jpg","1","faces","","0","1","0","0.4","87.99999999999994","","","","","","","","","","","","","","","","","","","","","","","","","","","","",""
"","iti_localizer","","html-keyboard-response","205","85789","0.0-2.0-75.0-1.0","NaN","82292","","null","","","","null","","73","","","1","","","","","","0.3","88.39999999999995","","","","","","","","","","","","","","","","","","","","","","","","","","","","",""
"","localizer","","html-keyboard-response","206","86206","0.0-2.0-76.0-0.0","NaN","82292","","NaN","","","","null","NaN","74","","Stimuli/Experimental_stims/localizer/faces/rafaella-mendes-diniz-et_78QkMMQs-unsplash.jpg","1","faces","","0","1","0","0.4","88.69999999999995","","","","","","","","","","","","","","","","","","","","","","","","","","","","",""
"","iti_localizer","","html-keyboard-response","207","86516","0.0-2.0-76.0-1.0","NaN","82292","","null","","","","null","","74","","","1","","","","","","0.3","89.09999999999995","","","","","","","","","","","","","","","","","","","","","","","","","","","","",""
"","localizer","","html-keyboard-response","208","86929","0.0-2.0-77.0-0.0","NaN","82292","","NaN","","","","null","NaN","75","","Stimuli/Experimental_stims/localizer/faces/rui-silvestre-hAMJpesMeDE-unsplash.jpg","1","faces","","1","1","0","0.4","89.39999999999995","","","","","","","","","","","","","","","","","","","","","","","","","","","","",""
"","iti_localizer","","html-keyboard-response","209","87236","0.0-2.0-77.0-1.0","NaN","82292","","null","","","","null","","75","","","1","","","","","","0.3","89.79999999999995","","","","","","","","","","","","","","","","","","","","","","","","","","","","",""
"","localizer","","html-keyboard-response","210","87644","0.0-2.0-78.0-0.0","NaN","82292","","NaN","","","","null","NaN","76","","Stimuli/Experimental_stims/localizer/faces/jeffery-erhunse-BQMZ5ligqps-unsplash.jpg","1","faces","","0","1","0","0.4","90.09999999999995","","","","","","","","","","","","","","","","","","","","","","","","","","","","",""
"","iti_localizer","","html-keyboard-response","211","87956","0.0-2.0-78.0-1.0","NaN","82292","","null","","","","null","","76","","","1","","","","","","0.3","90.49999999999996","","","","","","","","","","","","","","","","","","","","","","","","","","","","",""
"","localizer","","html-keyboard-response","212","88363","0.0-2.0-79.0-0.0","NaN","82292","","NaN","","","","null","NaN","77","","Stimuli/Experimental_stims/localizer/faces/joseph-gonzalez-iFgRcqHznqg-unsplash.jpg","1","faces","","0","1","0","0.4","90.79999999999995","","","","","","","","","","","","","","","","","","","","","","","","","","","","",""
"","iti_localizer","","html-keyboard-response","213","88680","0.0-2.0-79.0-1.0","NaN","82292","","null","","","","null","","77","","","1","","","","","","0.3","91.19999999999996","","","","","","","","","","","","","","","","","","","","","","","","","","","","",""
"","localizer","","html-keyboard-response","214","89086","0.0-2.0-80.0-0.0","NaN","82292","","NaN","","","","null","NaN","78","","Stimuli/Experimental_stims/localizer/faces/alexis-chloe-TYDkKEgc0Fg-unsplash.jpg","1","faces","","0","1","0","0.4","91.49999999999996","","","","","","","","","","","","","","","","","","","","","","","","","","","","",""
"","iti_localizer","","html-keyboard-response","215","89397","0.0-2.0-80.0-1.0","NaN","82292","","null","","","","null","","78","","","1","","","","","","0.3","91.89999999999996","","","","","","","","","","","","","","","","","","","","","","","","","","","","",""
"","localizer","","html-keyboard-response","216","89802","0.0-2.0-81.0-0.0","NaN","82292","","NaN","","","","null","NaN","79","","Stimuli/Experimental_stims/localizer/faces/jeffery-erhunse-vp9mRauo68c-unsplash.jpg","1","faces","","0","1","0","0.4","92.19999999999996","","","","","","","","","","","","","","","","","","","","","","","","","","","","",""
"","iti_localizer","","html-keyboard-response","217","90116","0.0-2.0-81.0-1.0","NaN","82292","","null","","","","null","","79","","","1","","","","","","0.3","92.59999999999997","","","","","","","","","","","","","","","","","","","","","","","","","","","","",""
"","localizer","","html-keyboard-response","218","90527","0.0-2.0-82.0-0.0","NaN","82292","","NaN","","","","null","NaN","80","","Stimuli/Experimental_stims/localizer/faces/christian-ferrer-8vT-DgHZDG4-unsplash.jpg","1","faces","","0","1","0","0.4","92.89999999999996","","","","","","","","","","","","","","","","","","","","","","","","","","","","",""
"","iti_localizer","","html-keyboard-response","219","90837","0.0-2.0-82.0-1.0","NaN","82292","","null","","","","null","","80","","","1","","","","","","0.3","93.29999999999997","","","","","","","","","","","","","","","","","","","","","","","","","","","","",""
"","localizer","","html-keyboard-response","220","91248","0.0-2.0-83.0-0.0","NaN","82292","","NaN","","","","null","NaN","81","","Stimuli/Experimental_stims/localizer/faces/ethan-haddox-__ng3cRXmFE-unsplash.jpg","1","faces","","0","1","0","0.4","93.59999999999997","","","","","","","","","","","","","","","","","","","","","","","","","","","","",""
"","iti_localizer","","html-keyboard-response","221","91555","0.0-2.0-83.0-1.0","NaN","82292","","null","","","","null","","81","","","1","","","","","","0.3","93.99999999999997","","","","","","","","","","","","","","","","","","","","","","","","","","","","",""
"","localizer","","html-keyboard-response","222","91961","0.0-2.0-84.0-0.0","NaN","82292","","NaN","","","","null","NaN","82","","Stimuli/Experimental_stims/localizer/faces/prince-akachi-LWkFHEGpleE-unsplash.jpg","1","faces","","0","1","0","0.4","94.29999999999997","","","","","","","","","","","","","","","","","","","","","","","","","","","","",""
"","iti_localizer","","html-keyboard-response","223","92269","0.0-2.0-84.0-1.0","NaN","82292","","null","","","","null","","82","","","1","","","","","","0.3","94.69999999999997","","","","","","","","","","","","","","","","","","","","","","","","","","","","",""
"","localizer","","html-keyboard-response","224","92685","0.0-2.0-85.0-0.0","NaN","82292","","NaN","","","","null","NaN","83","","Stimuli/Experimental_stims/localizer/faces/philip-martin-5aGUyCW_PJw-unsplash.jpg","1","faces","","0","1","0","0.4","94.99999999999997","","","","","","","","","","","","","","","","","","","","","","","","","","","","",""
"","iti_localizer","","html-keyboard-response","225","92996","0.0-2.0-85.0-1.0","NaN","82292","","null","","","","null","","83","","","1","","","","","","0.3","95.39999999999998","","","","","","","","","","","","","","","","","","","","","","","","","","","","",""
"","localizer","","html-keyboard-response","226","93407","0.0-2.0-86.0-0.0","NaN","82292","","NaN","","","","null","NaN","84","","Stimuli/Experimental_stims/localizer/faces/janaya-dasiuk-_A2LZdUqHgA-unsplash.jpg","1","faces","","0","1","0","0.4","95.69999999999997","","","","","","","","","","","","","","","","","","","","","","","","","","","","",""
"","iti_localizer","","html-keyboard-response","227","93716","0.0-2.0-86.0-1.0","NaN","82292","","null","","","","null","","84","","","1","","","","","","0.3","96.09999999999998","","","","","","","","","","","","","","","","","","","","","","","","","","","","",""
"","localizer","","html-keyboard-response","228","94124","0.0-2.0-87.0-0.0","NaN","82292","","NaN","","","","null","NaN","85","","Stimuli/Experimental_stims/localizer/faces/christian-buehner-DItYlc26zVI-unsplash.jpg","1","faces","","1","1","0","0.4","96.39999999999998","","","","","","","","","","","","","","","","","","","","","","","","","","","","",""
"","iti_localizer","","html-keyboard-response","229","94438","0.0-2.0-87.0-1.0","NaN","82292","","null","","","","null","","85","","","1","","","","","","14","96.79999999999998","","","","","","","","","","","","","","","","","","","","","","","","","","","","",""
"","localizer","","html-keyboard-response","230","94853","0.0-2.0-88.0-0.0","NaN","82292","","NaN","","","","null","NaN","86","","Stimuli/Experimental_stims/localizer/outdoor_scenes/nikola-majksner-hXNGeAFOgT4-unsplash.jpg","1","outdoor_scenes","","0","1","0","0.4","110.79999999999998","","","","","","","","","","","","","","","","","","","","","","","","","","","","",""
"","iti_localizer","","html-keyboard-response","231","95165","0.0-2.0-88.0-1.0","NaN","82292","","null","","","","null","","86","","","1","","","","","","0.3","111.19999999999999","","","","","","","","","","","","","","","","","","","","","","","","","","","","",""
"","localizer","","html-keyboard-response","232","95580","0.0-2.0-89.0-0.0","NaN","82292","","NaN","","","","null","NaN","87","","Stimuli/Experimental_stims/localizer/outdoor_scenes/simon-berger-twukN12EN7c-unsplash.jpg","1","outdoor_scenes","","0","1","0","0.4","111.49999999999999","","","","","","","","","","","","","","","","","","","","","","","","","","","","",""
"","iti_localizer","","html-keyboard-response","233","95896","0.0-2.0-89.0-1.0","NaN","82292","","null","","","","null","","87","","","1","","","","","","0.3","111.89999999999999","","","","","","","","","","","","","","","","","","","","","","","","","","","","",""
"","localizer","","html-keyboard-response","234","96310","0.0-2.0-90.0-0.0","NaN","82292","","NaN","","","","null","NaN","88","","Stimuli/Experimental_stims/localizer/outdoor_scenes/benjamin-davies-Zm2n2O7Fph4-unsplash.jpg","1","outdoor_scenes","","0","1","0","0.4","112.19999999999999","","","","","","","","","","","","","","","","","","","","","","","","","","","","",""
"","iti_localizer","","html-keyboard-response","235","96628","0.0-2.0-90.0-1.0","NaN","82292","","null","","","","null","","88","","","1","","","","","","0.3","112.6","","","","","","","","","","","","","","","","","","","","","","","","","","","","",""
"","localizer","","html-keyboard-response","236","97040","0.0-2.0-91.0-0.0","NaN","82292","","NaN","","","","null","NaN","89","","Stimuli/Experimental_stims/localizer/outdoor_scenes/alessio-furlan-Vw3a0HgE7AM-unsplash.jpg","1","outdoor_scenes","","0","1","0","0.4","112.89999999999999","","","","","","","","","","","","","","","","","","","","","","","","","","","","",""
"","iti_localizer","","html-keyboard-response","237","97349","0.0-2.0-91.0-1.0","NaN","82292","","null","","","","null","","89","","","1","","","","","","0.3","113.3","","","","","","","","","","","","","","","","","","","","","","","","","","","","",""
"","localizer","","html-keyboard-response","238","97755","0.0-2.0-92.0-0.0","NaN","82292","","NaN","","","","null","NaN","90","","Stimuli/Experimental_stims/localizer/outdoor_scenes/v2osk-1Z2niiBPg5A-unsplash.jpg","1","outdoor_scenes","","0","1","0","0.4","113.6","","","","","","","","","","","","","","","","","","","","","","","","","","","","",""
"","iti_localizer","","html-keyboard-response","239","98069","0.0-2.0-92.0-1.0","NaN","82292","","null","","","","null","","90","","","1","","","","","","0.3","114","","","","","","","","","","","","","","","","","","","","","","","","","","","","",""
"","localizer","","html-keyboard-response","240","98478","0.0-2.0-93.0-0.0","NaN","82292","","NaN","","","","null","NaN","91","","Stimuli/Experimental_stims/localizer/outdoor_scenes/samuel-ferrara-IEHPDNk2-8w-unsplash.jpg","1","outdoor_scenes","","0","1","0","0.4","114.3","","","","","","","","","","","","","","","","","","","","","","","","","","","","",""
"","iti_localizer","","html-keyboard-response","241","98790","0.0-2.0-93.0-1.0","NaN","82292","","null","","","","null","","91","","","1","","","","","","0.3","114.7","","","","","","","","","","","","","","","","","","","","","","","","","","","","",""
"","localizer","","html-keyboard-response","242","99204","0.0-2.0-94.0-0.0","NaN","82292","","NaN","","","","null","NaN","92","","Stimuli/Experimental_stims/localizer/outdoor_scenes/eberhard-grossgasteiger-y2azHvupCVo-unsplash.jpg","1","outdoor_scenes","","0","1","0","0.4","115","","","","","","","","","","","","","","","","","","","","","","","","","","","","",""
"","iti_localizer","","html-keyboard-response","243","99520","0.0-2.0-94.0-1.0","NaN","82292","","null","","","","null","","92","","","1","","","","","","0.3","115.4","","","","","","","","","","","","","","","","","","","","","","","","","","","","",""
"","localizer","","html-keyboard-response","244","99934","0.0-2.0-95.0-0.0","NaN","82292","","NaN","","","","null","NaN","93","","Stimuli/Experimental_stims/localizer/outdoor_scenes/julien-lavallee-X2DE1VmN7x4-unsplash.jpg","1","outdoor_scenes","","1","1","0","0.4","115.7","","","","","","","","","","","","","","","","","","","","","","","","","","","","",""
"","iti_localizer","","html-keyboard-response","245","100244","0.0-2.0-95.0-1.0","NaN","82292","","null","","","","null","","93","","","1","","","","","","0.3","116.10000000000001","","","","","","","","","","","","","","","","","","","","","","","","","","","","",""
"","localizer","","html-keyboard-response","246","100652","0.0-2.0-96.0-0.0","NaN","82292","","NaN","","","","null","NaN","94","","Stimuli/Experimental_stims/localizer/outdoor_scenes/quentin-zwzeorQPepo-unsplash.jpg","1","outdoor_scenes","","0","1","0","0.4","116.4","","","","","","","","","","","","","","","","","","","","","","","","","","","","",""
"","iti_localizer","","html-keyboard-response","247","100966","0.0-2.0-96.0-1.0","NaN","82292","","null","","","","null","","94","","","1","","","","","","0.3","116.80000000000001","","","","","","","","","","","","","","","","","","","","","","","","","","","","",""
"","localizer","","html-keyboard-response","248","101379","0.0-2.0-97.0-0.0","NaN","82292","","NaN","","","","null","NaN","95","","Stimuli/Experimental_stims/localizer/outdoor_scenes/tim-swaan-eOpewngf68w-unsplash (1).jpg","1","outdoor_scenes","","0","1","0","0.4","117.10000000000001","","","","","","","","","","","","","","","","","","","","","","","","","","","","",""
"","iti_localizer","","html-keyboard-response","249","101695","0.0-2.0-97.0-1.0","NaN","82292","","null","","","","null","","95","","","1","","","","","","0.3","117.50000000000001","","","","","","","","","","","","","","","","","","","","","","","","","","","","",""
"","localizer","","html-keyboard-response","250","102112","0.0-2.0-98.0-0.0","NaN","82292","","NaN","","","","null","NaN","96","","Stimuli/Experimental_stims/localizer/outdoor_scenes/erol-ahmed-d3pTF3r_hwY-unsplash.jpg","1","outdoor_scenes","","0","1","0","0.4","117.80000000000001","","","","","","","","","","","","","","","","","","","","","","","","","","","","",""
"","iti_localizer","","html-keyboard-response","251","102419","0.0-2.0-98.0-1.0","NaN","82292","","null","","","","null","","96","","","1","","","","","","0.3","118.20000000000002","","","","","","","","","","","","","","","","","","","","","","","","","","","","",""
"","localizer","","html-keyboard-response","252","102830","0.0-2.0-99.0-0.0","NaN","82292","","NaN","","","","null","NaN","97","","Stimuli/Experimental_stims/localizer/outdoor_scenes/solotravelgoals-7kLufxYoqWk-unsplash.jpg","1","outdoor_scenes","","0","1","0","0.4","118.50000000000001","","","","","","","","","","","","","","","","","","","","","","","","","","","","",""
"","iti_localizer","","html-keyboard-response","253","103142","0.0-2.0-99.0-1.0","NaN","82292","","null","","","","null","","97","","","1","","","","","","0.3","118.90000000000002","","","","","","","","","","","","","","","","","","","","","","","","","","","","",""
"","localizer","","html-keyboard-response","254","103557","0.0-2.0-100.0-0.0","NaN","82292","","NaN","","","","null","NaN","98","","Stimuli/Experimental_stims/localizer/outdoor_scenes/jack-millard-zjyP-UYI-ko-unsplash.jpg","1","outdoor_scenes","","0","1","0","0.4","119.20000000000002","","","","","","","","","","","","","","","","","","","","","","","","","","","","",""
"","iti_localizer","","html-keyboard-response","255","103869","0.0-2.0-100.0-1.0","NaN","82292","","null","","","","null","","98","","","1","","","","","","0.3","119.60000000000002","","","","","","","","","","","","","","","","","","","","","","","","","","","","",""
"","localizer","","html-keyboard-response","256","104280","0.0-2.0-101.0-0.0","NaN","82292","","NaN","","","","null","NaN","99","","Stimuli/Experimental_stims/localizer/outdoor_scenes/john-lee-oMneOBYhJxY-unsplash.jpg","1","outdoor_scenes","","1","1","0","0.4","119.90000000000002","","","","","","","","","","","","","","","","","","","","","","","","","","","","",""
"","iti_localizer","","html-keyboard-response","257","104592","0.0-2.0-101.0-1.0","NaN","82292","","null","","","","null","","99","","","1","","","","","","0.3","120.30000000000003","","","","","","","","","","","","","","","","","","","","","","","","","","","","",""
"","localizer","","html-keyboard-response","258","105004","0.0-2.0-102.0-0.0","NaN","82292","","NaN","","","","null","NaN","100","","Stimuli/Experimental_stims/localizer/outdoor_scenes/jordan-heath-4z_SYrG5mgA-unsplash.jpg","1","outdoor_scenes","","0","1","0","0.4","120.60000000000002","","","","","","","","","","","","","","","","","","","","","","","","","","","","",""
"","iti_localizer","","html-keyboard-response","259","105315","0.0-2.0-102.0-1.0","NaN","82292","","null","","","","null","","100","","","1","","","","","","0.3","121.00000000000003","","","","","","","","","","","","","","","","","","","","","","","","","","","","",""
"","localizer","","html-keyboard-response","260","105727","0.0-2.0-103.0-0.0","NaN","82292","","NaN","","","","null","NaN","101","","Stimuli/Experimental_stims/localizer/outdoor_scenes/pietro-de-grandi-T7K4aEPoGGk-unsplash.jpg","1","outdoor_scenes","","0","1","0","0.4","121.30000000000003","","","","","","","","","","","","","","","","","","","","","","","","","","","","",""
"","iti_localizer","","html-keyboard-response","261","106039","0.0-2.0-103.0-1.0","NaN","82292","","null","","","","null","","101","","","1","","","","","","0.3","121.70000000000003","","","","","","","","","","","","","","","","","","","","","","","","","","","","",""
"","localizer","","html-keyboard-response","262","106453","0.0-2.0-104.0-0.0","NaN","82292","","NaN","","","","null","NaN","102","","Stimuli/Experimental_stims/localizer/outdoor_scenes/sebastian-unrau-v4e3JI7DDHI-unsplash.jpg","1","outdoor_scenes","","0","1","0","0.4","122.00000000000003","","","","","","","","","","","","","","","","","","","","","","","","","","","","",""
"","iti_localizer","","html-keyboard-response","263","106768","0.0-2.0-104.0-1.0","NaN","82292","","null","","","","null","","102","","","1","","","","","","0.3","122.40000000000003","","","","","","","","","","","","","","","","","","","","","","","","","","","","",""
"","localizer","","html-keyboard-response","264","107183","0.0-2.0-105.0-0.0","NaN","82292","","NaN","","","","null","NaN","103","","Stimuli/Experimental_stims/localizer/outdoor_scenes/bruno-van-der-kraan-qez8mNJ3ilU-unsplash.jpg","1","outdoor_scenes","","0","1","0","0.4","122.70000000000003","","","","","","","","","","","","","","","","","","","","","","","","","","","","",""
"","iti_localizer","","html-keyboard-response","265","107496","0.0-2.0-105.0-1.0","NaN","82292","","null","","","","null","","103","","","1","","","","","","0.3","123.10000000000004","","","","","","","","","","","","","","","","","","","","","","","","","","","","",""
"","localizer","","html-keyboard-response","266","107911","0.0-2.0-106.0-0.0","NaN","82292","","NaN","","","","null","NaN","104","","Stimuli/Experimental_stims/localizer/outdoor_scenes/john-fowler-aaIN3y2zcMQ-unsplash.jpg","1","outdoor_scenes","","0","1","0","0.4","123.40000000000003","","","","","","","","","","","","","","","","","","","","","","","","","","","","",""
"","iti_localizer","","html-keyboard-response","267","108223","0.0-2.0-106.0-1.0","NaN","82292","","null","","","","null","","104","","","1","","","","","","0.3","123.80000000000004","","","","","","","","","","","","","","","","","","","","","","","","","","","","",""
"","localizer","","html-keyboard-response","268","108635","0.0-2.0-107.0-0.0","NaN","82292","","NaN","","","","null","NaN","105","","Stimuli/Experimental_stims/localizer/outdoor_scenes/cosmic-timetraveler-pYyOZ8q7AII-unsplash.jpg","1","outdoor_scenes","","0","1","0","0.4","124.10000000000004","","","","","","","","","","","","","","","","","","","","","","","","","","","","",""
"","iti_localizer","","html-keyboard-response","269","108942","0.0-2.0-107.0-1.0","NaN","82292","","null","","","","null","","105","","","1","","","","","","14","124.50000000000004","","","","","","","","","","","","","","","","","","","","","","","","","","","","",""
"","localizer","","html-keyboard-response","270","109358","0.0-2.0-108.0-0.0","NaN","82292","","NaN","","","","null","NaN","106","","Stimuli/Experimental_stims/localizer/objects/girl-with-red-hat-Xxg-r574pLE-unsplash.jpg","1","objects","","0","1","0","0.4","138.50000000000006","","","","","","","","","","","","","","","","","","","","","","","","","","","","",""
"","iti_localizer","","html-keyboard-response","271","109670","0.0-2.0-108.0-1.0","NaN","82292","","null","","","","null","","106","","","1","","","","","","0.3","138.90000000000006","","","","","","","","","","","","","","","","","","","","","","","","","","","","",""
"","localizer","","html-keyboard-response","272","110086","0.0-2.0-109.0-0.0","NaN","82292","","NaN","","","","null","NaN","107","","Stimuli/Experimental_stims/localizer/objects/collab-media-eddtBBbaw0Y-unsplash.jpg","1","objects","","1","1","0","0.4","139.20000000000007","","","","","","","","","","","","","","","","","","","","","","","","","","","","",""
"","iti_localizer","","html-keyboard-response","273","110400","0.0-2.0-109.0-1.0","NaN","82292","","null","","","","null","","107","","","1","","","","","","0.3","139.60000000000008","","","","","","","","","","","","","","","","","","","","","","","","","","","","",""
"","localizer","","html-keyboard-response","274","110816","0.0-2.0-110.0-0.0","NaN","82292","","NaN","","","","null","NaN","108","","Stimuli/Experimental_stims/localizer/objects/maria-lupan-Rlakka_pZMU-unsplash.jpg","1","objects","","0","1","0","0.4","139.9000000000001","","","","","","","","","","","","","","","","","","","","","","","","","","","","",""
"","iti_localizer","","html-keyboard-response","275","111123","0.0-2.0-110.0-1.0","NaN","82292","","null","","","","null","","108","","","1","","","","","","0.3","140.3000000000001","","","","","","","","","","","","","","","","","","","","","","","","","","","","",""
"","localizer","","html-keyboard-response","276","111534","0.0-2.0-111.0-0.0","NaN","82292","","NaN","","","","null","NaN","109","","Stimuli/Experimental_stims/localizer/objects/mockup-graphics-U6ZMEefFGx8-unsplash.jpg","1","objects","","0","1","0","0.4","140.6000000000001","","","","","","","","","","","","","","","","","","","","","","","","","","","","",""
"","iti_localizer","","html-keyboard-response","277","111849","0.0-2.0-111.0-1.0","NaN","82292","","null","","","","null","","109","","","1","","","","","","0.3","141.0000000000001","","","","","","","","","","","","","","","","","","","","","","","","","","","","",""
"","localizer","","html-keyboard-response","278","112261","0.0-2.0-112.0-0.0","NaN","82292","","NaN","","","","null","NaN","110","","Stimuli/Experimental_stims/localizer/objects/adriano-pucciarelli-BE7yaZnZX6o-unsplash.jpg","1","objects","","0","1","0","0.4","141.30000000000013","","","","","","","","","","","","","","","","","","","","","","","","","","","","",""
"","iti_localizer","","html-keyboard-response","279","112578","0.0-2.0-112.0-1.0","NaN","82292","","null","","","","null","","110","","","1","","","","","","0.3","141.70000000000013","","","","","","","","","","","","","","","","","","","","","","","","","","","","",""
"","localizer","","html-keyboard-response","280","112986","0.0-2.0-113.0-0.0","NaN","82292","","NaN","","","","null","NaN","111","","Stimuli/Experimental_stims/localizer/objects/adriano-pucciarelli-Jl3S1yM8gi8-unsplash.jpg","1","objects","","0","1","0","0.4","142.00000000000014","","","","","","","","","","","","","","","","","","","","","","","","","","","","",""
"","iti_localizer","","html-keyboard-response","281","113302","0.0-2.0-113.0-1.0","NaN","82292","","null","","","","null","","111","","","1","","","","","","0.3","142.40000000000015","","","","","","","","","","","","","","","","","","","","","","","","","","","","",""
"","localizer","","html-keyboard-response","282","113716","0.0-2.0-114.0-0.0","NaN","82292","","NaN","","","","null","NaN","112","","Stimuli/Experimental_stims/localizer/objects/chris-briggs-x9TCnxNBofE-unsplash.jpg","1","objects","","1","1","0","0.4","142.70000000000016","","","","","","","","","","","","","","","","","","","","","","","","","","","","",""
"","iti_localizer","","html-keyboard-response","283","114031","0.0-2.0-114.0-1.0","NaN","82292","","null","","","","null","","112","","","1","","","","","","0.3","143.10000000000016","","","","","","","","","","","","","","","","","","","","","","","","","","","","",""
"","localizer","","html-keyboard-response","284","114447","0.0-2.0-115.0-0.0","NaN","82292","","NaN","","","","null","NaN","113","","Stimuli/Experimental_stims/localizer/objects/miti-MZPdB1DU4a4-unsplash.jpg","1","objects","","0","1","0","0.4","143.40000000000018","","","","","","","","","","","","","","","","","","","","","","","","","","","","",""
"","iti_localizer","","html-keyboard-response","285","114760","0.0-2.0-115.0-1.0","NaN","82292","","null","","","","null","","113","","","1","","","","","","0.3","143.80000000000018","","","","","","","","","","","","","","","","","","","","","","","","","","","","",""
"","localizer","","html-keyboard-response","286","115177","0.0-2.0-116.0-0.0","NaN","82292","","NaN","","","","null","NaN","114","","Stimuli/Experimental_stims/localizer/objects/girl-with-red-hat-oJG9HOVKGMs-unsplash.jpg","1","objects","","0","1","0","0.4","144.1000000000002","","","","","","","","","","","","","","","","","","","","","","","","","","","","",""
"","iti_localizer","","html-keyboard-response","287","115487","0.0-2.0-116.0-1.0","NaN","82292","","null","","","","null","","114","","","1","","","","","","0.3","144.5000000000002","","","","","","","","","","","","","","","","","","","","","","","","","","","","",""
"","localizer","","html-keyboard-response","288","115901","0.0-2.0-117.0-0.0","NaN","82292","","NaN","","","","null","NaN","115","","Stimuli/Experimental_stims/localizer/objects/annie-spratt-fbAnIjhrOL4-unsplash.jpg","1","objects","","0","1","0","0.4","144.8000000000002","","","","","","","","","","","","","","","","","","","","","","","","","","","","",""
"","iti_localizer","","html-keyboard-response","289","116216","0.0-2.0-117.0-1.0","NaN","82292","","null","","","","null","","115","","","1","","","","","","0.3","145.20000000000022","","","","","","","","","","","","","","","","","","","","","","","","","","","","",""
"","localizer","","html-keyboard-response","290","116632","0.0-2.0-118.0-0.0","NaN","82292","","NaN","","","","null","NaN","116","","Stimuli/Experimental_stims/localizer/objects/chris-briggs-FobzAZJGM9M-unsplash.jpg","1","objects","","0","1","0","0.4","145.50000000000023","","","","","","","","","","","","","","","","","","","","","","","","","","","","",""
"","iti_localizer","","html-keyboard-response","291","116940","0.0-2.0-118.0-1.0","NaN","82292","","null","","","","null","","116","","","1","","","","","","0.3","145.90000000000023","","","","","","","","","","","","","","","","","","","","","","","","","","","","",""
"","localizer","","html-keyboard-response","292","117350","0.0-2.0-119.0-0.0","NaN","82292","","NaN","","","","null","NaN","117","","Stimuli/Experimental_stims/localizer/objects/mae-mu-yl2d0CKW130-unsplash.jpg","1","objects","","0","1","0","0.4","146.20000000000024","","","","","","","","","","","","","","","","","","","","","","","","","","","","",""
"","iti_localizer","","html-keyboard-response","293","117661","0.0-2.0-119.0-1.0","NaN","82292","","null","","","","null","","117","","","1","","","","","","0.3","146.60000000000025","","","","","","","","","","","","","","","","","","","","","","","","","","","","",""
"","localizer","","html-keyboard-response","294","118072","0.0-2.0-120.0-0.0","NaN","82292","","NaN","","","","null","NaN","118","","Stimuli/Experimental_stims/localizer/objects/sam-moghadam-khamseh-kvmdsTrGOBM-unsplash.jpg","1","objects","","0","1","0","0.4","146.90000000000026","","","","","","","","","","","","","","","","","","","","","","","","","","","","",""
"","iti_localizer","","html-keyboard-response","295","118383","0.0-2.0-120.0-1.0","NaN","82292","","null","","","","null","","118","","","1","","","","","","0.3","147.30000000000027","","","","","","","","","","","","","","","","","","","","","","","","","","","","",""
"","localizer","","html-keyboard-response","296","118798","0.0-2.0-121.0-0.0","NaN","82292","","NaN","","","","null","NaN","119","","Stimuli/Experimental_stims/localizer/objects/sam-moghadam-khamseh-xej3GOtAQ-o-unsplash.jpg","1","objects","","0","1","0","0.4","147.60000000000028","","","","","","","","","","","","","","","","","","","","","","","","","","","","",""
"","iti_localizer","","html-keyboard-response","297","119112","0.0-2.0-121.0-1.0","NaN","82292","","null","","","","null","","119","","","1","","","","","","0.3","148.00000000000028","","","","","","","","","","","","","","","","","","","","","","","","","","","","",""
"","localizer","","html-keyboard-response","298","119527","0.0-2.0-122.0-0.0","NaN","82292","","NaN","","","","null","NaN","120","","Stimuli/Experimental_stims/localizer/objects/hipster-mum-XookgCxFw6Q-unsplash.jpg","1","objects","","0","1","0","0.4","148.3000000000003","","","","","","","","","","","","","","","","","","","","","","","","","","","","",""
"","iti_localizer","","html-keyboard-response","299","119836","0.0-2.0-122.0-1.0","NaN","82292","","null","","","","null","","120","","","1","","","","","","0.3","148.7000000000003","","","","","","","","","","","","","","","","","","","","","","","","","","","","",""
"","localizer","","html-keyboard-response","300","120246","0.0-2.0-123.0-0.0","NaN","82292","","NaN","","","","null","NaN","121","","Stimuli/Experimental_stims/localizer/objects/nicolas-hippert-SVgX47QIUlc-unsplash.jpg","1","objects","","0","1","0","0.4","149.0000000000003","","","","","","","","","","","","","","","","","","","","","","","","","","","","",""
"","iti_localizer","","html-keyboard-response","301","120558","0.0-2.0-123.0-1.0","NaN","82292","","null","","","","null","","121","","","1","","","","","","0.3","149.40000000000032","","","","","","","","","","","","","","","","","","","","","","","","","","","","",""
"","localizer","","html-keyboard-response","302","120977","0.0-2.0-124.0-0.0","NaN","82292","","NaN","","","","null","NaN","122","","Stimuli/Experimental_stims/localizer/objects/raimond-klavins-ZdvDPXVvcKs-unsplash.jpg","1","objects","","0","1","0","0.4","149.70000000000033","","","","","","","","","","","","","","","","","","","","","","","","","","","","",""
"","iti_localizer","","html-keyboard-response","303","121287","0.0-2.0-124.0-1.0","NaN","82292","","null","","","","null","","122","","","1","","","","","","0.3","150.10000000000034","","","","","","","","","","","","","","","","","","","","","","","","","","","","",""
"","localizer","","html-keyboard-response","304","121699","0.0-2.0-125.0-0.0","NaN","82292","","NaN","","","","null","NaN","123","","Stimuli/Experimental_stims/localizer/objects/mockup-graphics-aUkYaG12Dgs-unsplash.jpg","1","objects","","0","1","0","0.4","150.40000000000035","","","","","","","","","","","","","","","","","","","","","","","","","","","","",""
"","iti_localizer","","html-keyboard-response","305","122018","0.0-2.0-125.0-1.0","NaN","82292","","null","","","","null","","123","","","1","","","","","","0.3","150.80000000000035","","","","","","","","","","","","","","","","","","","","","","","","","","","","",""
"","localizer","","html-keyboard-response","306","122430","0.0-2.0-126.0-0.0","NaN","82292","","NaN","","","","null","NaN","124","","Stimuli/Experimental_stims/localizer/objects/petr-sidorov-3jm5TGqtULU-unsplash.jpg","1","objects","","0","1","0","0.4","151.10000000000036","","","","","","","","","","","","","","","","","","","","","","","","","","","","",""
"","iti_localizer","","html-keyboard-response","307","122745","0.0-2.0-126.0-1.0","NaN","82292","","null","","","","null","","124","","","1","","","","","","0.3","151.50000000000037","","","","","","","","","","","","","","","","","","","","","","","","","","","","",""
"","localizer","","html-keyboard-response","308","123158","0.0-2.0-127.0-0.0","NaN","82292","","NaN","","","","null","NaN","125","","Stimuli/Experimental_stims/localizer/objects/namroud-gorguis-FZWivbri0Xk-unsplash.jpg","1","objects","","0","1","0","0.4","151.80000000000038","","","","","","","","","","","","","","","","","","","","","","","","","","","","",""
"","iti_localizer","","html-keyboard-response","309","123471","0.0-2.0-127.0-1.0","NaN","82292","","null","","","","null","","125","","","1","","","","","","14","152.2000000000004","","","","","","","","","","","","","","","","","","","","","","","","","","","","",""
"","localizer","","html-keyboard-response","310","123887","0.0-2.0-128.0-0.0","NaN","82292","","NaN","","","","null","NaN","126","","Stimuli/Experimental_stims/localizer/faces/hisu-lee-2qvxIr_DXGo-unsplash.jpg","1","faces","","0","1","0","0.4","166.2000000000004","","","","","","","","","","","","","","","","","","","","","","","","","","","","",""
"","iti_localizer","","html-keyboard-response","311","124197","0.0-2.0-128.0-1.0","NaN","82292","","null","","","","null","","126","","","1","","","","","","0.3","166.6000000000004","","","","","","","","","","","","","","","","","","","","","","","","","","","","",""
"","localizer","","html-keyboard-response","312","124605","0.0-2.0-129.0-0.0","NaN","82292","","NaN","","","","null","NaN","127","","Stimuli/Experimental_stims/localizer/faces/abstral-official-cyOKLSgkgCE-unsplash.jpg","1","faces","","0","1","0","0.4","166.9000000000004","","","","","","","","","","","","","","","","","","","","","","","","","","","","",""
"","iti_localizer","","html-keyboard-response","313","124915","0.0-2.0-129.0-1.0","NaN","82292","","null","","","","null","","127","","","1","","","","","","0.3","167.3000000000004","","","","","","","","","","","","","","","","","","","","","","","","","","","","",""
"","localizer","","html-keyboard-response","314","125328","0.0-2.0-130.0-0.0","NaN","82292","","NaN","","","","null","NaN","128","","Stimuli/Experimental_stims/localizer/faces/brooke-cagle-Nm70URdtf3c-unsplash (1).jpg","1","faces","","0","1","0","0.4","167.60000000000042","","","","","","","","","","","","","","","","","","","","","","","","","","","","",""
"","iti_localizer","","html-keyboard-response","315","125637","0.0-2.0-130.0-1.0","NaN","82292","","null","","","","null","","128","","","1","","","","","","0.3","168.00000000000043","","","","","","","","","","","","","","","","","","","","","","","","","","","","",""
"","localizer","","html-keyboard-response","316","126048","0.0-2.0-131.0-0.0","NaN","82292","","NaN","","","","null","NaN","129","","Stimuli/Experimental_stims/localizer/faces/ihor-saveliev-3POm-bxWIN8-unsplash.jpg","1","faces","","1","1","0","0.4","168.30000000000044","","","","","","","","","","","","","","","","","","","","","","","","","","","","",""
"","iti_localizer","","html-keyboard-response","317","126355","0.0-2.0-131.0-1.0","NaN","82292","","null","","","","null","","129","","","1","","","","","","0.3","168.70000000000044","","","","","","","","","","","","","","","","","","","","","","","","","","","","",""
"","localizer","","html-keyboard-response","318","126764","0.0-2.0-132.0-0.0","NaN","82292","","NaN","","","","null","NaN","130","","Stimuli/Experimental_stims/localizer/faces/jakob-owens-lkMJcGDZLVs-unsplash.jpg","1","faces","","0","1","0","0.4","169.00000000000045","","","","","","","","","","","","","","","","","","","","","","","","","","","","",""
