"success","ttype","start_time","trial_type","trial_index","time_elapsed","internal_node_id","age","PID","gender","rt","responses","view_history","repeat_instructions","key_press","response","index","stimulus_index","path","start_time_elapsed","run","task","isi","is_odd_ball","no_response","acc","duration","onset","duration_time_elapsed","onset_time_elapsed","trial_duration","left_chosen","chosen_stimulus","unchosen_stimulus","chosen_category","unchosen_category","chosen_rating","unchosen_rating","chosen_path","unchosen_path","pair_id","practice","scramble_screen_time","scramble_instructed_side","stim_type","iti","block","left_stimulus","right_stimulus","left_category","right_category","left_path","right_path","left_rating","right_rating","scramble_acc","warning","missed_checkup","stimulus_id","item_id","outcome","response_rt","deliberation_reward_tally","choice_type","gain_left","left_item_id","right_item_id","higher_outcome_chosen","chosen_left","old_pair","pair_type","old_response","pair_acc","reward_type","outcome_response","outcome_rt","outcome_acc","category","choice","deliberated_stim","old_rating","new_rating","total_reward_tally"
"true","full_screen","d08172023hr1722","fullscreen","0","34075","0.0-0.0-0.0","30","15837","female","","","","","","","","","","","","","","","","","","","","","","","","","","","","","","","","","","","","","","","","","","","","","","","","","","","","","","","","","","","","","","","","","","","","","","","","",""
"","get_id","","survey-text","1","39795","0.0-0.0-1.0","30","15837","female","5698","{""Q0"":""30"",""Q1"":""female""}","","","","","","","","","","","","","","","","","","","","","","","","","","","","","","","","","","","","","","","","","","","","","","","","","","","","","","","","","","","","","","","","","","","","","","",""
"","ratings_instructions","","instructions","2","54146","0.0-1.0-0.0-0.0","30","15837","female","13268","","[{""page_index"":0,""viewing_time"":9762},{""page_index"":1,""viewing_time"":3504}]","","","","","","","","","","","","","","","","","","","","","","","","","","","","","","","","","","","","","","","","","","","","","","","","","","","","","","","","","","","","","","","","","","","","","",""
"","rating_comprehension_check","","survey-multi-choice","3","59178","0.0-1.0-0.0-1.0","30","15837","female","5002","{""Q0"":""True"",""Q1"":""Mouse""}","","0","","","","","","","","","","","","","","","","","","","","","","","","","","","","","","","","","","","","","","","","","","","","","","","","","","","","","","","","","","","","","","","","","","","","",""
"","","","html-keyboard-response","4","62205","0.0-1.0-1.0","30","15837","female","2995","","","","68","","","","","","","","","","","","","","","","","","","","","","","","","","","","","","","","","","","","","","","","","","","","","","","","","","","","","","","","","","","","","","","","","","","",""
"","rating","","html-slider-response","5","65607","0.0-1.0-2.0","30","15837","female","3381","","","","","72","0","28","Stimuli/Experimental_stims/body_parts/ira-vishnevskaya-8DQAvdCby1I-unsplash.jpg","","","","","","","","","","","","","","","","","","","","","","","","","","","","","","","","","","","","","","","","","","","","","","","","","","","","","","","","","","","","","","","",""
"","rating","","html-slider-response","6","68652","0.0-1.0-3.0","30","15837","female","3024","","","","","69","1","4","Stimuli/Experimental_stims/outdoor_scenes/jarrett-kow-1ZOyYPOBn7I-unsplash.jpg","","","","","","","","","","","","","","","","","","","","","","","","","","","","","","","","","","","","","","","","","","","","","","","","","","","","","","","","","","","","","","","",""
"","rating","","html-slider-response","7","72231","0.0-1.0-4.0","30","15837","female","3560","","","","","23","2","35","Stimuli/Experimental_stims/body_parts/wc-so-KH4AAPjb-tI-unsplash.jpg","","","","","","","","","","","","","","","","","","","","","","","","","","","","","","","","","","","","","","","","","","","","","","","","","","","","","","","","","","","","","","","",""
"","rating","","html-slider-response","8","75643","0.0-1.0-5.0","30","15837","female","3391","","","","","62","3","47","Stimuli/Experimental_stims/objects/ronaldo-arthur-vidal-Cdz_lvnl37k-unsplash.jpg","","","","","","","","","","","","","","","","","","","","","","","","","","","","","","","","","","","","","","","","","","","","","","","","","","","","","","","","","","","","","","","",""
"","rating","","html-slider-response","9","78886","0.0-1.0-6.0","30","15837","female","3222","","","","","68","4","9","Stimuli/Experimental_stims/outdoor_scenes/sergey-pesterev-y-b_FOmJXdg-unsplash.jpg","","","","","","","","","","","","","","","","","","","","","","","","","","","","","","","","","","","","","","","","","","","","","","","","","","","","","","","","","","","","","","","",""
"","rating","","html-slider-response","10","81965","0.0-1.0-7.0","30","15837","female","3061","","","","","68","5","31","Stimuli/Experimental_stims/body_parts/sincerely-media-VN6DbKajo5s-unsplash.jpg","","","","","","","","","","","","","","","","","","","","","","","","","","","","","","","","","","","","","","","","","","","","","","","","","","","","","","","","","","","","","","","",""
"","rating","","html-slider-response","11","85112","0.0-1.0-8.0","30","15837","female","3128","","","","","82","6","5","Stimuli/Experimental_stims/outdoor_scenes/jeff-king-bJHWJeiHfHc-unsplash.jpg","","","","","","","","","","","","","","","","","","","","","","","","","","","","","","","","","","","","","","","","","","","","","","","","","","","","","","","","","","","","","","","",""
"","rating","","html-slider-response","12","87625","0.0-1.0-9.0","30","15837","female","2492","","","","","77","7","27","Stimuli/Experimental_stims/body_parts/heike-mintel-i_Gns0ELnLw-unsplash.jpg","","","","","","","","","","","","","","","","","","","","","","","","","","","","","","","","","","","","","","","","","","","","","","","","","","","","","","","","","","","","","","","",""
"","rating","","html-slider-response","13","90308","0.0-1.0-10.0","30","15837","female","2664","","","","","75","8","37","Stimuli/Experimental_stims/objects/alexander-andrews-VLGWE_SumrA-unsplash.jpg","","","","","","","","","","","","","","","","","","","","","","","","","","","","","","","","","","","","","","","","","","","","","","","","","","","","","","","","","","","","","","","",""
"","rating","","html-slider-response","14","93014","0.0-1.0-11.0","30","15837","female","2688","","","","","80","9","19","Stimuli/Experimental_stims/faces/joel-mott-LaK153ghdig-unsplash.jpg","","","","","","","","","","","","","","","","","","","","","","","","","","","","","","","","","","","","","","","","","","","","","","","","","","","","","","","","","","","","","","","",""
"","rating","","html-slider-response","15","96172","0.0-1.0-12.0","30","15837","female","3139","","","","","71","10","34","Stimuli/Experimental_stims/body_parts/wagner-santos-mBWMvIuVnso-unsplash.jpg","","","","","","","","","","","","","","","","","","","","","","","","","","","","","","","","","","","","","","","","","","","","","","","","","","","","","","","","","","","","","","","",""
"","rating","","html-slider-response","16","99667","0.0-1.0-13.0","30","15837","female","3475","","","","","80","11","22","Stimuli/Experimental_stims/faces/ravi-patel-VMGAbeeJTKo-unsplash.jpg","","","","","","","","","","","","","","","","","","","","","","","","","","","","","","","","","","","","","","","","","","","","","","","","","","","","","","","","","","","","","","","",""
"","rating","","html-slider-response","17","103107","0.0-1.0-14.0","30","15837","female","3420","","","","","78","12","1","Stimuli/Experimental_stims/outdoor_scenes/ashim-d-silva-S2Q5mdOrrVc-unsplash.jpg","","","","","","","","","","","","","","","","","","","","","","","","","","","","","","","","","","","","","","","","","","","","","","","","","","","","","","","","","","","","","","","",""
"","rating","","html-slider-response","18","105945","0.0-1.0-15.0","30","15837","female","2818","","","","","78","13","15","Stimuli/Experimental_stims/faces/erik-lucatero-d2MSDujJl2g-unsplash.jpg","","","","","","","","","","","","","","","","","","","","","","","","","","","","","","","","","","","","","","","","","","","","","","","","","","","","","","","","","","","","","","","",""
"","rating","","html-slider-response","19","108689","0.0-1.0-16.0","30","15837","female","2723","","","","","78","14","17","Stimuli/Experimental_stims/faces/good-faces-xmSWVeGEnJw-unsplash.jpg","","","","","","","","","","","","","","","","","","","","","","","","","","","","","","","","","","","","","","","","","","","","","","","","","","","","","","","","","","","","","","","",""
"","rating","","html-slider-response","20","111494","0.0-1.0-17.0","30","15837","female","2783","","","","","73","15","12","Stimuli/Experimental_stims/faces/aiony-haust-jmATI5Q_YgY-unsplash.jpg","","","","","","","","","","","","","","","","","","","","","","","","","","","","","","","","","","","","","","","","","","","","","","","","","","","","","","","","","","","","","","","",""
"","rating","","html-slider-response","21","114472","0.0-1.0-18.0","30","15837","female","2958","","","","","74","16","0","Stimuli/Experimental_stims/outdoor_scenes/aleksandra-boguslawska-MS7KD9Ti7FQ-unsplash.jpg","","","","","","","","","","","","","","","","","","","","","","","","","","","","","","","","","","","","","","","","","","","","","","","","","","","","","","","","","","","","","","","",""
"","rating","","html-slider-response","22","117305","0.0-1.0-19.0","30","15837","female","2815","","","","","83","17","41","Stimuli/Experimental_stims/objects/insung-yoon-w2JtIQQXoRU-unsplash.jpg","","","","","","","","","","","","","","","","","","","","","","","","","","","","","","","","","","","","","","","","","","","","","","","","","","","","","","","","","","","","","","","",""
"","rating","","html-slider-response","23","120757","0.0-1.0-20.0","30","15837","female","3432","","","","","80","18","18","Stimuli/Experimental_stims/faces/jessica-radanavong-mrYkTuAesKE-unsplash.jpg","","","","","","","","","","","","","","","","","","","","","","","","","","","","","","","","","","","","","","","","","","","","","","","","","","","","","","","","","","","","","","","",""
"","rating","","html-slider-response","24","123880","0.0-1.0-21.0","30","15837","female","3103","","","","","76","19","11","Stimuli/Experimental_stims/outdoor_scenes/stephen-leonardi-gyIRjKPXupE-unsplash.jpg","","","","","","","","","","","","","","","","","","","","","","","","","","","","","","","","","","","","","","","","","","","","","","","","","","","","","","","","","","","","","","","",""
"","rating","","html-slider-response","25","127816","0.0-1.0-22.0","30","15837","female","3916","","","","","83","20","20","Stimuli/Experimental_stims/faces/justin-chen-J7Cf1Gch49E-unsplash.jpg","","","","","","","","","","","","","","","","","","","","","","","","","","","","","","","","","","","","","","","","","","","","","","","","","","","","","","","","","","","","","","","",""
"","rating","","html-slider-response","26","130670","0.0-1.0-23.0","30","15837","female","2834","","","","","83","21","23","Stimuli/Experimental_stims/faces/rikonavt-HQjfrvdTfak-unsplash.jpg","","","","","","","","","","","","","","","","","","","","","","","","","","","","","","","","","","","","","","","","","","","","","","","","","","","","","","","","","","","","","","","",""
"","rating","","html-slider-response","27","133759","0.0-1.0-24.0","30","15837","female","3069","","","","","80","22","25","Stimuli/Experimental_stims/body_parts/engin-akyurt-Q2rfH3GW39c-unsplash.jpg","","","","","","","","","","","","","","","","","","","","","","","","","","","","","","","","","","","","","","","","","","","","","","","","","","","","","","","","","","","","","","","",""
"","rating","","html-slider-response","28","136576","0.0-1.0-25.0","30","15837","female","2798","","","","","83","23","33","Stimuli/Experimental_stims/body_parts/tucker-good-36skLT5jZcc-unsplash.jpg","","","","","","","","","","","","","","","","","","","","","","","","","","","","","","","","","","","","","","","","","","","","","","","","","","","","","","","","","","","","","","","",""
"","rating","","html-slider-response","29","139579","0.0-1.0-26.0","30","15837","female","2984","","","","","77","24","32","Stimuli/Experimental_stims/body_parts/towfiqu-barbhuiya-3AsiVDsZnHg-unsplash.jpg","","","","","","","","","","","","","","","","","","","","","","","","","","","","","","","","","","","","","","","","","","","","","","","","","","","","","","","","","","","","","","","",""
"","rating","","html-slider-response","30","142507","0.0-1.0-27.0","30","15837","female","2908","","","","","75","25","30","Stimuli/Experimental_stims/body_parts/mika-korhonen-Xodzxosar18-unsplash.jpg","","","","","","","","","","","","","","","","","","","","","","","","","","","","","","","","","","","","","","","","","","","","","","","","","","","","","","","","","","","","","","","",""
"","rating","","html-slider-response","31","145540","0.0-1.0-28.0","30","15837","female","3015","","","","","76","26","16","Stimuli/Experimental_stims/faces/freddy-kearney-o-ioeoATbIM-unsplash.jpg","","","","","","","","","","","","","","","","","","","","","","","","","","","","","","","","","","","","","","","","","","","","","","","","","","","","","","","","","","","","","","","",""
"","rating","","html-slider-response","32","149169","0.0-1.0-29.0","30","15837","female","3609","","","","","78","27","14","Stimuli/Experimental_stims/faces/david-siglin-UuW4psOb388-unsplash.jpg","","","","","","","","","","","","","","","","","","","","","","","","","","","","","","","","","","","","","","","","","","","","","","","","","","","","","","","","","","","","","","","",""
"","rating","","html-slider-response","33","152214","0.0-1.0-30.0","30","15837","female","3024","","","","","70","28","36","Stimuli/Experimental_stims/objects/alexander-andrews-JYGnB9gTCls-unsplash.jpg","","","","","","","","","","","","","","","","","","","","","","","","","","","","","","","","","","","","","","","","","","","","","","","","","","","","","","","","","","","","","","","",""
"","rating","","html-slider-response","34","155488","0.0-1.0-31.0","30","15837","female","3254","","","","","76","29","3","Stimuli/Experimental_stims/outdoor_scenes/henry-be-NLF6hTe4PAg-unsplash.jpg","","","","","","","","","","","","","","","","","","","","","","","","","","","","","","","","","","","","","","","","","","","","","","","","","","","","","","","","","","","","","","","",""
"","rating","","html-slider-response","35","158575","0.0-1.0-32.0","30","15837","female","3067","","","","","71","30","29","Stimuli/Experimental_stims/body_parts/manuel-schinner-ZwjFuJ7ebpk-unsplash.jpg","","","","","","","","","","","","","","","","","","","","","","","","","","","","","","","","","","","","","","","","","","","","","","","","","","","","","","","","","","","","","","","",""
"","rating","","html-slider-response","36","161764","0.0-1.0-33.0","30","15837","female","3171","","","","","70","31","43","Stimuli/Experimental_stims/objects/jonathan-greenaway-Y4hGgeiFn3s-unsplash.jpg","","","","","","","","","","","","","","","","","","","","","","","","","","","","","","","","","","","","","","","","","","","","","","","","","","","","","","","","","","","","","","","",""
"","rating","","html-slider-response","37","164799","0.0-1.0-34.0","30","15837","female","3015","","","","","78","32","40","Stimuli/Experimental_stims/objects/fabian-blank-pElSkGRA2NU-unsplash.jpg","","","","","","","","","","","","","","","","","","","","","","","","","","","","","","","","","","","","","","","","","","","","","","","","","","","","","","","","","","","","","","","",""
"","rating","","html-slider-response","38","167650","0.0-1.0-35.0","30","15837","female","2831","","","","","75","33","2","Stimuli/Experimental_stims/outdoor_scenes/bruno-van-der-kraan-qez8mNJ3ilU-unsplash.jpg","","","","","","","","","","","","","","","","","","","","","","","","","","","","","","","","","","","","","","","","","","","","","","","","","","","","","","","","","","","","","","","",""
"","rating","","html-slider-response","39","170673","0.0-1.0-36.0","30","15837","female","3003","","","","","79","34","26","Stimuli/Experimental_stims/body_parts/engin-akyurt-x_3gyC42btc-unsplash.jpg","","","","","","","","","","","","","","","","","","","","","","","","","","","","","","","","","","","","","","","","","","","","","","","","","","","","","","","","","","","","","","","",""
"","rating","","html-slider-response","40","173564","0.0-1.0-37.0","30","15837","female","2870","","","","","75","35","45","Stimuli/Experimental_stims/objects/leohoho-rngTKHXumy0-unsplash.jpg","","","","","","","","","","","","","","","","","","","","","","","","","","","","","","","","","","","","","","","","","","","","","","","","","","","","","","","","","","","","","","","",""
"","rating","","html-slider-response","41","176501","0.0-1.0-38.0","30","15837","female","2915","","","","","78","36","6","Stimuli/Experimental_stims/outdoor_scenes/meng-ji-8BH_M-53CyA-unsplash.jpg","","","","","","","","","","","","","","","","","","","","","","","","","","","","","","","","","","","","","","","","","","","","","","","","","","","","","","","","","","","","","","","",""
"","rating","","html-slider-response","42","180803","0.0-1.0-39.0","30","15837","female","4282","","","","","85","37","13","Stimuli/Experimental_stims/faces/daniel-rigdon-dXmXKPP2L4E-unsplash.jpg","","","","","","","","","","","","","","","","","","","","","","","","","","","","","","","","","","","","","","","","","","","","","","","","","","","","","","","","","","","","","","","",""
"","rating","","html-slider-response","43","183977","0.0-1.0-40.0","30","15837","female","3150","","","","","68","38","44","Stimuli/Experimental_stims/objects/kuiye-chen-NuOGFo4PudE-unsplash.jpg","","","","","","","","","","","","","","","","","","","","","","","","","","","","","","","","","","","","","","","","","","","","","","","","","","","","","","","","","","","","","","","",""
"","rating","","html-slider-response","44","187015","0.0-1.0-41.0","30","15837","female","3020","","","","","75","39","42","Stimuli/Experimental_stims/objects/jess-bailey-nOeVi8DsN8U-unsplash.jpg","","","","","","","","","","","","","","","","","","","","","","","","","","","","","","","","","","","","","","","","","","","","","","","","","","","","","","","","","","","","","","","",""
"","rating","","html-slider-response","45","189688","0.0-1.0-42.0","30","15837","female","2653","","","","","78","40","24","Stimuli/Experimental_stims/body_parts/clay-banks-LjqARJaJotc-unsplash.jpg","","","","","","","","","","","","","","","","","","","","","","","","","","","","","","","","","","","","","","","","","","","","","","","","","","","","","","","","","","","","","","","",""
"","rating","","html-slider-response","46","193326","0.0-1.0-43.0","30","15837","female","3620","","","","","76","41","21","Stimuli/Experimental_stims/faces/leilani-angel-K84vnnzxmTQ-unsplash.jpg","","","","","","","","","","","","","","","","","","","","","","","","","","","","","","","","","","","","","","","","","","","","","","","","","","","","","","","","","","","","","","","",""
"","rating","","html-slider-response","47","197104","0.0-1.0-44.0","30","15837","female","3759","","","","","75","42","7","Stimuli/Experimental_stims/outdoor_scenes/petr-vysohlid-9fqwGqGLUxc-unsplash.jpg","","","","","","","","","","","","","","","","","","","","","","","","","","","","","","","","","","","","","","","","","","","","","","","","","","","","","","","","","","","","","","","",""
"","rating","","html-slider-response","48","200106","0.0-1.0-45.0","30","15837","female","2984","","","","","74","43","46","Stimuli/Experimental_stims/objects/mockup-graphics-PNsj6RiHAF4-unsplash.jpg","","","","","","","","","","","","","","","","","","","","","","","","","","","","","","","","","","","","","","","","","","","","","","","","","","","","","","","","","","","","","","","",""
"","rating","","html-slider-response","49","202930","0.0-1.0-46.0","30","15837","female","2802","","","","","75","44","38","Stimuli/Experimental_stims/objects/art-lasovsky-8XddFc6NkBY-unsplash.jpg","","","","","","","","","","","","","","","","","","","","","","","","","","","","","","","","","","","","","","","","","","","","","","","","","","","","","","","","","","","","","","","",""
"","rating","","html-slider-response","50","206661","0.0-1.0-47.0","30","15837","female","3712","","","","","77","45","8","Stimuli/Experimental_stims/outdoor_scenes/samsommer-vddccTqwal8-unsplash.jpg","","","","","","","","","","","","","","","","","","","","","","","","","","","","","","","","","","","","","","","","","","","","","","","","","","","","","","","","","","","","","","","",""
"","rating","","html-slider-response","51","209416","0.0-1.0-48.0","30","15837","female","2730","","","","","75","46","10","Stimuli/Experimental_stims/outdoor_scenes/shannon-kunkle-dM8INmkyDas-unsplash.jpg","","","","","","","","","","","","","","","","","","","","","","","","","","","","","","","","","","","","","","","","","","","","","","","","","","","","","","","","","","","","","","","",""
"","rating","","html-slider-response","52","212176","0.0-1.0-49.0","30","15837","female","2740","","","","","75","47","39","Stimuli/Experimental_stims/objects/charlesdeluvio-1-nx1QR5dTE-unsplash.jpg","","","","","","","","","","","","","","","","","","","","","","","","","","","","","","","","","","","","","","","","","","","","","","","","","","","","","","","","","","","","","","","",""
"","localizer_instructions","","instructions","53","240172","0.0-2.0-0.0-0.0","30","15837","female","27830","","[{""page_index"":0,""viewing_time"":9750},{""page_index"":1,""viewing_time"":9529},{""page_index"":2,""viewing_time"":8546}]","","","","","","","","","","","","","","","","","","","","","","","","","","","","","","","","","","","","","","","","","","","","","","","","","","","","","","","","","","","","","","","","","","","","","",""
"","localizer_comprehension_check","","survey-multi-choice","54","248460","0.0-2.0-0.0-1.0","30","15837","female","8265","{""Q0"":""True"",""Q1"":""K"",""Q2"":""D""}","","0","","","","","","","","","","","","","","","","","","","","","","","","","","","","","","","","","","","","","","","","","","","","","","","","","","","","","","","","","","","","","","","","","","","","",""
"","","","html-keyboard-response","55","253117","0.0-2.0-1.0","30","15837","female","4627","","","","68","","","","","","","","","","","","","","","","","","","","","","","","","","","","","","","","","","","","","","","","","","","","","","","","","","","","","","","","","","","","","","","","","","","",""
"","localizer","","html-keyboard-response","56","253540","0.0-2.0-2.0-0.0","30","15837","female","NaN","","","","null","NaN","0","","Stimuli/Practice_stims/Localizer/annie-spratt-g9KFpAfQ5bc-unsplash.jpg","253117","0","NaN","","0","1","0","400","0","423","0","","","","","","","","","","","","","","","","","","","","","","","","","","","","","","","","","","","","","","","","","","","","","","","","","","","","",""
"","iti_localizer","","html-keyboard-response","57","253857","0.0-2.0-2.0-1.0","30","15837","female","null","","","","null","","0","","","253540","0","","","","","","300","400","317","423","300","","","","","","","","","","","","","","","","","","","","","","","","","","","","","","","","","","","","","","","","","","","","","","","","","","","",""
"","localizer","","html-keyboard-response","58","254280","0.0-2.0-2.1-0.1","30","15837","female","338","","","","68","0","0","","Stimuli/Practice_stims/Localizer/annie-spratt-g9KFpAfQ5bc-unsplash.jpg","253857","0","NaN","","0","0","1","400","700","423","740","","","","","","","","","","","","","","","","","","","","","","","","","","","","","","","","","","","","","","","","","","","","","","","","","","","","",""
"","iti_localizer","","html-keyboard-response","59","254598","0.0-2.0-2.1-1.1","30","15837","female","null","","","","null","","0","","","254280","0","","","","","","300","1100","318","1163","300","","","","","","","","","","","","","","","","","","","","","","","","","","","","","","","","","","","","","","","","","","","","","","","","","","","",""
"","localizer","","html-keyboard-response","60","255020","0.0-2.0-3.0-0.0","30","15837","female","NaN","","","","null","NaN","1","","Stimuli/Practice_stims/Localizer/becca-tapert-sY5RjMB1KkE-unsplash.jpg","254598","0","NaN","","0","1","0","400","1400","422","1481","","","","","","","","","","","","","","","","","","","","","","","","","","","","","","","","","","","","","","","","","","","","","","","","","","","","",""
"","iti_localizer","","html-keyboard-response","61","255341","0.0-2.0-3.0-1.0","30","15837","female","null","","","","null","","1","","","255020","0","","","","","","300","1800","321","1903","300","","","","","","","","","","","","","","","","","","","","","","","","","","","","","","","","","","","","","","","","","","","","","","","","","","","",""
"","localizer","","html-keyboard-response","62","255763","0.0-2.0-3.1-0.1","30","15837","female","27","","","","68","0","1","","Stimuli/Practice_stims/Localizer/becca-tapert-sY5RjMB1KkE-unsplash.jpg","255341","0","NaN","","0","0","1","400","2100","422","2224","","","","","","","","","","","","","","","","","","","","","","","","","","","","","","","","","","","","","","","","","","","","","","","","","","","","",""
"","iti_localizer","","html-keyboard-response","63","256084","0.0-2.0-3.1-1.1","30","15837","female","null","","","","null","","1","","","255763","0","","","","","","300","2500","321","2646","300","","","","","","","","","","","","","","","","","","","","","","","","","","","","","","","","","","","","","","","","","","","","","","","","","","","",""
"","localizer","","html-keyboard-response","64","256506","0.0-2.0-4.0-0.0","30","15837","female","NaN","","","","null","NaN","2","","Stimuli/Practice_stims/Localizer/charl-durand-bsfXvI25iNg-unsplash.jpg","256084","0","NaN","","1","1","0","400","2800","422","2967","","","","","","","","","","","","","","","","","","","","","","","","","","","","","","","","","","","","","","","","","","","","","","","","","","","","",""
"","iti_localizer","","html-keyboard-response","65","256827","0.0-2.0-4.0-1.0","30","15837","female","null","","","","null","","2","","","256506","0","","","","","","300","3200","321","3389","300","","","","","","","","","","","","","","","","","","","","","","","","","","","","","","","","","","","","","","","","","","","","","","","","","","","",""
"","localizer","","html-keyboard-response","66","257245","0.0-2.0-4.1-0.1","30","15837","female","181","","","","75","1","2","","Stimuli/Practice_stims/Localizer/charl-durand-bsfXvI25iNg-unsplash.jpg","256827","0","NaN","","1","0","1","400","3500","418","3710","","","","","","","","","","","","","","","","","","","","","","","","","","","","","","","","","","","","","","","","","","","","","","","","","","","","",""
"","iti_localizer","","html-keyboard-response","67","257565","0.0-2.0-4.1-1.1","30","15837","female","null","","","","null","","2","","","257245","0","","","","","","300","3900","320","4128","300","","","","","","","","","","","","","","","","","","","","","","","","","","","","","","","","","","","","","","","","","","","","","","","","","","","",""
"","localizer","","html-keyboard-response","68","257986","0.0-2.0-5.0-0.0","30","15837","female","288","","","","75","1","3","","Stimuli/Practice_stims/Localizer/nizar-albusaidy-B2r2SWAf5CE-unsplash.jpg","257565","0","NaN","","0","0","0","400","4200","421","4448","","","","","","","","","","","","","","","","","","","","","","","","","","","","","","","","","","","","","","","","","","","","","","","","","","","","",""
"","iti_localizer","","html-keyboard-response","69","258307","0.0-2.0-5.0-1.0","30","15837","female","null","","","","null","","3","","","257986","0","","","","","","300","4600","321","4869","300","","","","","","","","","","","","","","","","","","","","","","","","","","","","","","","","","","","","","","","","","","","","","","","","","","","",""
"","localizer","","html-keyboard-response","70","258724","0.0-2.0-6.0-0.0","30","15837","female","NaN","","","","null","NaN","4","","Stimuli/Practice_stims/Localizer/randy-fath-epf1tdtIIkM-unsplash.jpg","258307","0","NaN","","1","1","0","400","4900","417","5190","","","","","","","","","","","","","","","","","","","","","","","","","","","","","","","","","","","","","","","","","","","","","","","","","","","","",""
"","iti_localizer","","html-keyboard-response","71","259045","0.0-2.0-6.0-1.0","30","15837","female","null","","","","null","","4","","","258724","0","","","","","","300","5300","321","5607","300","","","","","","","","","","","","","","","","","","","","","","","","","","","","","","","","","","","","","","","","","","","","","","","","","","","",""
"","localizer","","html-keyboard-response","72","259466","0.0-2.0-6.1-0.1","30","15837","female","NaN","","","","null","NaN","4","","Stimuli/Practice_stims/Localizer/randy-fath-epf1tdtIIkM-unsplash.jpg","259045","0","NaN","","1","1","0","400","5600","421","5928","","","","","","","","","","","","","","","","","","","","","","","","","","","","","","","","","","","","","","","","","","","","","","","","","","","","",""
"","iti_localizer","","html-keyboard-response","73","259785","0.0-2.0-6.1-1.1","30","15837","female","null","","","","null","","4","","","259466","0","","","","","","300","6000","319","6349","300","","","","","","","","","","","","","","","","","","","","","","","","","","","","","","","","","","","","","","","","","","","","","","","","","","","",""
"","localizer","","html-keyboard-response","74","260203","0.0-2.0-6.2-0.2","30","15837","female","NaN","","","","null","NaN","4","","Stimuli/Practice_stims/Localizer/randy-fath-epf1tdtIIkM-unsplash.jpg","259785","0","NaN","","1","1","0","400","6300","418","6668","","","","","","","","","","","","","","","","","","","","","","","","","","","","","","","","","","","","","","","","","","","","","","","","","","","","",""
"","iti_localizer","","html-keyboard-response","75","260524","0.0-2.0-6.2-1.2","30","15837","female","null","","","","null","","4","","","260203","0","","","","","","300","6700","321","7086","300","","","","","","","","","","","","","","","","","","","","","","","","","","","","","","","","","","","","","","","","","","","","","","","","","","","",""
"","localizer","","html-keyboard-response","76","260945","0.0-2.0-6.3-0.3","30","15837","female","NaN","","","","null","NaN","4","","Stimuli/Practice_stims/Localizer/randy-fath-epf1tdtIIkM-unsplash.jpg","260524","0","NaN","","1","1","0","400","7000","421","7407","","","","","","","","","","","","","","","","","","","","","","","","","","","","","","","","","","","","","","","","","","","","","","","","","","","","",""
"","iti_localizer","","html-keyboard-response","77","261265","0.0-2.0-6.3-1.3","30","15837","female","null","","","","null","","4","","","260945","0","","","","","","300","7400","320","7828","300","","","","","","","","","","","","","","","","","","","","","","","","","","","","","","","","","","","","","","","","","","","","","","","","","","","",""
"","localizer","","html-keyboard-response","78","261688","0.0-2.0-6.4-0.4","30","15837","female","NaN","","","","null","NaN","4","","Stimuli/Practice_stims/Localizer/randy-fath-epf1tdtIIkM-unsplash.jpg","261265","0","NaN","","1","1","0","400","7700","423","8148","","","","","","","","","","","","","","","","","","","","","","","","","","","","","","","","","","","","","","","","","","","","","","","","","","","","",""
"","iti_localizer","","html-keyboard-response","79","262007","0.0-2.0-6.4-1.4","30","15837","female","null","","","","null","","4","","","261688","0","","","","","","300","8100","319","8571","300","","","","","","","","","","","","","","","","","","","","","","","","","","","","","","","","","","","","","","","","","","","","","","","","","","","",""
"","localizer","","html-keyboard-response","80","262427","0.0-2.0-6.5-0.5","30","15837","female","88","","","","75","1","4","","Stimuli/Practice_stims/Localizer/randy-fath-epf1tdtIIkM-unsplash.jpg","262007","0","NaN","","1","0","1","400","8400","420","8890","","","","","","","","","","","","","","","","","","","","","","","","","","","","","","","","","","","","","","","","","","","","","","","","","","","","",""
"","iti_localizer","","html-keyboard-response","81","262748","0.0-2.0-6.5-1.5","30","15837","female","null","","","","null","","4","","","262427","0","","","","","","300","8800","321","9310","300","","","","","","","","","","","","","","","","","","","","","","","","","","","","","","","","","","","","","","","","","","","","","","","","","","","",""
"","localizer","","html-keyboard-response","82","263169","0.0-2.0-7.0-0.0","30","15837","female","NaN","","","","null","NaN","5","","Stimuli/Practice_stims/Localizer/yassine-khalfalli-adsQ9d_Cx0c-unsplash.jpg","262748","0","NaN","","0","1","0","400","9100","421","9631","","","","","","","","","","","","","","","","","","","","","","","","","","","","","","","","","","","","","","","","","","","","","","","","","","","","",""
"","iti_localizer","","html-keyboard-response","83","263486","0.0-2.0-7.0-1.0","30","15837","female","null","","","","null","","5","","","263169","0","","","","","","300","9500","317","10052","300","","","","","","","","","","","","","","","","","","","","","","","","","","","","","","","","","","","","","","","","","","","","","","","","","","","",""
"","localizer","","html-keyboard-response","84","263908","0.0-2.0-7.1-0.1","30","15837","female","NaN","","","","null","NaN","5","","Stimuli/Practice_stims/Localizer/yassine-khalfalli-adsQ9d_Cx0c-unsplash.jpg","263486","0","NaN","","0","1","0","400","9800","422","10369","","","","","","","","","","","","","","","","","","","","","","","","","","","","","","","","","","","","","","","","","","","","","","","","","","","","",""
"","iti_localizer","","html-keyboard-response","85","264229","0.0-2.0-7.1-1.1","30","15837","female","null","","","","null","","5","","","263908","0","","","","","","300","10200","321","10791","300","","","","","","","","","","","","","","","","","","","","","","","","","","","","","","","","","","","","","","","","","","","","","","","","","","","",""
"","localizer","","html-keyboard-response","86","264652","0.0-2.0-7.2-0.2","30","15837","female","NaN","","","","null","NaN","5","","Stimuli/Practice_stims/Localizer/yassine-khalfalli-adsQ9d_Cx0c-unsplash.jpg","264229","0","NaN","","0","1","0","400","10500","423","11112","","","","","","","","","","","","","","","","","","","","","","","","","","","","","","","","","","","","","","","","","","","","","","","","","","","","",""
"","iti_localizer","","html-keyboard-response","87","264970","0.0-2.0-7.2-1.2","30","15837","female","null","","","","null","","5","","","264652","0","","","","","","300","10900","318","11535","300","","","","","","","","","","","","","","","","","","","","","","","","","","","","","","","","","","","","","","","","","","","","","","","","","","","",""
"","localizer","","html-keyboard-response","88","265391","0.0-2.0-7.3-0.3","30","15837","female","NaN","","","","null","NaN","5","","Stimuli/Practice_stims/Localizer/yassine-khalfalli-adsQ9d_Cx0c-unsplash.jpg","264970","0","NaN","","0","1","0","400","11200","421","11853","","","","","","","","","","","","","","","","","","","","","","","","","","","","","","","","","","","","","","","","","","","","","","","","","","","","",""
"","iti_localizer","","html-keyboard-response","89","265709","0.0-2.0-7.3-1.3","30","15837","female","null","","","","null","","5","","","265391","0","","","","","","300","11600","318","12274","300","","","","","","","","","","","","","","","","","","","","","","","","","","","","","","","","","","","","","","","","","","","","","","","","","","","",""
"","localizer","","html-keyboard-response","90","266128","0.0-2.0-7.4-0.4","30","15837","female","48","","","","68","0","5","","Stimuli/Practice_stims/Localizer/yassine-khalfalli-adsQ9d_Cx0c-unsplash.jpg","265709","0","NaN","","0","0","1","400","11900","419","12592","","","","","","","","","","","","","","","","","","","","","","","","","","","","","","","","","","","","","","","","","","","","","","","","","","","","",""
"","iti_localizer","","html-keyboard-response","91","266449","0.0-2.0-7.4-1.4","30","15837","female","null","","","","null","","5","","","266128","0","","","","","","300","12300","321","13011","300","","","","","","","","","","","","","","","","","","","","","","","","","","","","","","","","","","","","","","","","","","","","","","","","","","","",""
"","practice_over","","html-keyboard-response","92","266557","0.0-2.0-7.4-2.4-0.4","30","15837","female","88","","","","68","","","","","","","","","","","","","","","","","","","","","","","","","","","","","","","","","","","","","","","","","","","","","","","","","","","","","","","","","","","","","","","","","","","",""
"","start_run","","html-keyboard-response","93","268262","0.0-2.0-7.4-2.4-1.4","30","15837","female","1687","","","","84","","","","","","","","","","","","","","","","","","","","","","","","","","","","","","","","","","","","","","","","","","","","","","","","","","","","","","","","","","","","","","","","","","","",""
"","localizer","","html-keyboard-response","94","268679","0.0-2.0-8.0-0.0","30","15837","female","NaN","","","","null","NaN","6","","Stimuli/Experimental_stims/localizer/body_parts/igordoon-primus-CdyHqfrbGIs-unsplash.jpg","268262","1","body_parts","","0","1","0","400","0","417","0","","","","","","","","","","","","","","","","","","","","","","","","","","","","","","","","","","","","","","","","","","","","","","","","","","","","",""
"","iti_localizer","","html-keyboard-response","95","268998","0.0-2.0-8.0-1.0","30","15837","female","null","","","","null","","6","","","268679","1","","","","","","300","400","319","417","300","","","","","","","","","","","","","","","","","","","","","","","","","","","","","","","","","","","","","","","","","","","","","","","","","","","",""
"","localizer","","html-keyboard-response","96","269421","0.0-2.0-9.0-0.0","30","15837","female","111","","","","68","0","7","","Stimuli/Experimental_stims/localizer/body_parts/jonathan-borba-hTwH8QFkPMs-unsplash.jpg","268998","1","body_parts","","0","0","1","400","700","423","736","","","","","","","","","","","","","","","","","","","","","","","","","","","","","","","","","","","","","","","","","","","","","","","","","","","","",""
"","iti_localizer","","html-keyboard-response","97","269741","0.0-2.0-9.0-1.0","30","15837","female","null","","","","null","","7","","","269421","1","","","","","","300","1100","320","1159","300","","","","","","","","","","","","","","","","","","","","","","","","","","","","","","","","","","","","","","","","","","","","","","","","","","","",""
"","localizer","","html-keyboard-response","98","270164","0.0-2.0-10.0-0.0","30","15837","female","33","","","","68","0","8","","Stimuli/Experimental_stims/localizer/body_parts/marcel-fagin-OUYg0Q3ec-Y-unsplash.jpg","269741","1","body_parts","","1","0","0","400","1400","423","1479","","","","","","","","","","","","","","","","","","","","","","","","","","","","","","","","","","","","","","","","","","","","","","","","","","","","",""
"","iti_localizer","","html-keyboard-response","99","270482","0.0-2.0-10.0-1.0","30","15837","female","null","","","","null","","8","","","270164","1","","","","","","300","1800","318","1902","300","","","","","","","","","","","","","","","","","","","","","","","","","","","","","","","","","","","","","","","","","","","","","","","","","","","",""
"","localizer","","html-keyboard-response","100","270910","0.0-2.0-11.0-0.0","30","15837","female","NaN","","","","null","NaN","9","","Stimuli/Experimental_stims/localizer/body_parts/anelya-okapova-V69kmOyZ3SU-unsplash.jpg","270482","1","body_parts","","0","1","0","400","2100","428","2220","","","","","","","","","","","","","","","","","","","","","","","","","","","","","","","","","","","","","","","","","","","","","","","","","","","","",""
"","iti_localizer","","html-keyboard-response","101","271231","0.0-2.0-11.0-1.0","30","15837","female","null","","","","null","","9","","","270910","1","","","","","","300","2500","321","2648","300","","","","","","","","","","","","","","","","","","","","","","","","","","","","","","","","","","","","","","","","","","","","","","","","","","","",""
"","localizer","","html-keyboard-response","102","271653","0.0-2.0-12.0-0.0","30","15837","female","NaN","","","","null","NaN","10","","Stimuli/Experimental_stims/localizer/body_parts/jan-romero-DL4DDQb8yjc-unsplash.jpg","271231","1","body_parts","","0","1","0","400","2800","422","2969","","","","","","","","","","","","","","","","","","","","","","","","","","","","","","","","","","","","","","","","","","","","","","","","","","","","",""
"","iti_localizer","","html-keyboard-response","103","271973","0.0-2.0-12.0-1.0","30","15837","female","null","","","","null","","10","","","271653","1","","","","","","300","3200","320","3391","300","","","","","","","","","","","","","","","","","","","","","","","","","","","","","","","","","","","","","","","","","","","","","","","","","","","",""
"","localizer","","html-keyboard-response","104","272397","0.0-2.0-13.0-0.0","30","15837","female","NaN","","","","null","NaN","11","","Stimuli/Experimental_stims/localizer/body_parts/pure-julia-9lVaya31sMk-unsplash.jpg","271973","1","body_parts","","0","1","0","400","3500","424","3711","","","","","","","","","","","","","","","","","","","","","","","","","","","","","","","","","","","","","","","","","","","","","","","","","","","","",""
"","iti_localizer","","html-keyboard-response","105","272717","0.0-2.0-13.0-1.0","30","15837","female","null","","","","null","","11","","","272397","1","","","","","","300","3900","320","4135","300","","","","","","","","","","","","","","","","","","","","","","","","","","","","","","","","","","","","","","","","","","","","","","","","","","","",""
"","localizer","","html-keyboard-response","106","273136","0.0-2.0-14.0-0.0","30","15837","female","NaN","","","","null","NaN","12","","Stimuli/Experimental_stims/localizer/body_parts/jasper-garratt-Ng_Kl7K6V8Y-unsplash.jpg","272717","1","body_parts","","0","1","0","400","4200","419","4455","","","","","","","","","","","","","","","","","","","","","","","","","","","","","","","","","","","","","","","","","","","","","","","","","","","","",""
"","iti_localizer","","html-keyboard-response","107","273457","0.0-2.0-14.0-1.0","30","15837","female","null","","","","null","","12","","","273136","1","","","","","","300","4600","321","4874","300","","","","","","","","","","","","","","","","","","","","","","","","","","","","","","","","","","","","","","","","","","","","","","","","","","","",""
"","localizer","","html-keyboard-response","108","273878","0.0-2.0-15.0-0.0","30","15837","female","NaN","","","","null","NaN","13","","Stimuli/Experimental_stims/localizer/body_parts/i-am_nah--S4OsO0c6Ts-unsplash.jpg","273457","1","body_parts","","0","1","0","400","4900","421","5195","","","","","","","","","","","","","","","","","","","","","","","","","","","","","","","","","","","","","","","","","","","","","","","","","","","","",""
"","iti_localizer","","html-keyboard-response","109","274198","0.0-2.0-15.0-1.0","30","15837","female","null","","","","null","","13","","","273878","1","","","","","","300","5300","320","5616","300","","","","","","","","","","","","","","","","","","","","","","","","","","","","","","","","","","","","","","","","","","","","","","","","","","","",""
"","localizer","","html-keyboard-response","110","274620","0.0-2.0-16.0-0.0","30","15837","female","NaN","","","","null","NaN","14","","Stimuli/Experimental_stims/localizer/body_parts/femme-spirit-RGYBDUHYbyM-unsplash.jpg","274198","1","body_parts","","0","1","0","400","5600","422","5936","","","","","","","","","","","","","","","","","","","","","","","","","","","","","","","","","","","","","","","","","","","","","","","","","","","","",""
"","iti_localizer","","html-keyboard-response","111","274941","0.0-2.0-16.0-1.0","30","15837","female","null","","","","null","","14","","","274620","1","","","","","","300","6000","321","6358","300","","","","","","","","","","","","","","","","","","","","","","","","","","","","","","","","","","","","","","","","","","","","","","","","","","","",""
"","localizer","","html-keyboard-response","112","275363","0.0-2.0-17.0-0.0","30","15837","female","NaN","","","","null","NaN","15","","Stimuli/Experimental_stims/localizer/body_parts/liv-bruce-M0oVPGsWk1E-unsplash.jpg","274941","1","body_parts","","0","1","0","400","6300","422","6679","","","","","","","","","","","","","","","","","","","","","","","","","","","","","","","","","","","","","","","","","","","","","","","","","","","","",""
"","iti_localizer","","html-keyboard-response","113","275683","0.0-2.0-17.0-1.0","30","15837","female","null","","","","null","","15","","","275363","1","","","","","","300","6700","320","7101","300","","","","","","","","","","","","","","","","","","","","","","","","","","","","","","","","","","","","","","","","","","","","","","","","","","","",""
"","localizer","","html-keyboard-response","114","276101","0.0-2.0-18.0-0.0","30","15837","female","390","","","","68","0","16","","Stimuli/Experimental_stims/localizer/body_parts/bady-abbas-N-VEeMnm7gE-unsplash.jpg","275683","1","body_parts","","0","0","1","400","7000","418","7421","","","","","","","","","","","","","","","","","","","","","","","","","","","","","","","","","","","","","","","","","","","","","","","","","","","","",""
"","iti_localizer","","html-keyboard-response","115","276422","0.0-2.0-18.0-1.0","30","15837","female","null","","","","null","","16","","","276101","1","","","","","","300","7400","321","7839","300","","","","","","","","","","","","","","","","","","","","","","","","","","","","","","","","","","","","","","","","","","","","","","","","","","","",""
"","localizer","","html-keyboard-response","116","276844","0.0-2.0-19.0-0.0","30","15837","female","376","","","","68","0","17","","Stimuli/Experimental_stims/localizer/body_parts/lucaxx-freire-CacZwMexYdk-unsplash.jpg","276422","1","body_parts","","0","0","1","400","7700","422","8160","","","","","","","","","","","","","","","","","","","","","","","","","","","","","","","","","","","","","","","","","","","","","","","","","","","","",""
"","iti_localizer","","html-keyboard-response","117","277159","0.0-2.0-19.0-1.0","30","15837","female","null","","","","null","","17","","","276844","1","","","","","","300","8100","315","8582","300","","","","","","","","","","","","","","","","","","","","","","","","","","","","","","","","","","","","","","","","","","","","","","","","","","","",""
"","localizer","","html-keyboard-response","118","277581","0.0-2.0-20.0-0.0","30","15837","female","NaN","","","","null","NaN","18","","Stimuli/Experimental_stims/localizer/body_parts/hu-chen-tCbTGNwrFNM-unsplash.jpg","277159","1","body_parts","","0","1","0","400","8400","422","8897","","","","","","","","","","","","","","","","","","","","","","","","","","","","","","","","","","","","","","","","","","","","","","","","","","","","",""
"","iti_localizer","","html-keyboard-response","119","277901","0.0-2.0-20.0-1.0","30","15837","female","null","","","","null","","18","","","277581","1","","","","","","300","8800","320","9319","300","","","","","","","","","","","","","","","","","","","","","","","","","","","","","","","","","","","","","","","","","","","","","","","","","","","",""
"","localizer","","html-keyboard-response","120","278320","0.0-2.0-21.0-0.0","30","15837","female","399","","","","68","0","19","","Stimuli/Experimental_stims/localizer/body_parts/megan-menegay-UojxG_BJxnI-unsplash.jpg","277901","1","body_parts","","0","0","1","400","9100","419","9639","","","","","","","","","","","","","","","","","","","","","","","","","","","","","","","","","","","","","","","","","","","","","","","","","","","","",""
"","iti_localizer","","html-keyboard-response","121","278639","0.0-2.0-21.0-1.0","30","15837","female","null","","","","null","","19","","","278320","1","","","","","","300","9500","319","10058","300","","","","","","","","","","","","","","","","","","","","","","","","","","","","","","","","","","","","","","","","","","","","","","","","","","","",""
"","localizer","","html-keyboard-response","122","279060","0.0-2.0-22.0-0.0","30","15837","female","NaN","","","","null","NaN","20","","Stimuli/Experimental_stims/localizer/body_parts/toan-nguyen-VIeLuUFzesg-unsplash.jpg","278639","1","body_parts","","1","1","0","400","9800","421","10377","","","","","","","","","","","","","","","","","","","","","","","","","","","","","","","","","","","","","","","","","","","","","","","","","","","","",""
"","iti_localizer","","html-keyboard-response","123","279384","0.0-2.0-22.0-1.0","30","15837","female","null","","","","null","","20","","","279060","1","","","","","","300","10200","324","10798","300","","","","","","","","","","","","","","","","","","","","","","","","","","","","","","","","","","","","","","","","","","","","","","","","","","","",""
"","localizer","","html-keyboard-response","124","279806","0.0-2.0-23.0-0.0","30","15837","female","NaN","","","","null","NaN","21","","Stimuli/Experimental_stims/localizer/body_parts/sippakorn-yamkasikorn-32_sJlJa5gA-unsplash.jpg","279384","1","body_parts","","0","1","0","400","10500","422","11122","","","","","","","","","","","","","","","","","","","","","","","","","","","","","","","","","","","","","","","","","","","","","","","","","","","","",""
"","iti_localizer","","html-keyboard-response","125","280121","0.0-2.0-23.0-1.0","30","15837","female","null","","","","null","","21","","","279806","1","","","","","","300","10900","315","11544","300","","","","","","","","","","","","","","","","","","","","","","","","","","","","","","","","","","","","","","","","","","","","","","","","","","","",""
"","localizer","","html-keyboard-response","126","280543","0.0-2.0-24.0-0.0","30","15837","female","NaN","","","","null","NaN","22","","Stimuli/Experimental_stims/localizer/body_parts/louis-hansel-FjKTMRTQYAs-unsplash.jpg","280121","1","body_parts","","0","1","0","400","11200","422","11859","","","","","","","","","","","","","","","","","","","","","","","","","","","","","","","","","","","","","","","","","","","","","","","","","","","","",""
"","iti_localizer","","html-keyboard-response","127","280860","0.0-2.0-24.0-1.0","30","15837","female","null","","","","null","","22","","","280543","1","","","","","","300","11600","317","12281","300","","","","","","","","","","","","","","","","","","","","","","","","","","","","","","","","","","","","","","","","","","","","","","","","","","","",""
"","localizer","","html-keyboard-response","128","281277","0.0-2.0-25.0-0.0","30","15837","female","386","","","","68","0","23","","Stimuli/Experimental_stims/localizer/body_parts/sydney-herron-b2W04fGuS70-unsplash.jpg","280860","1","body_parts","","0","0","1","400","11900","417","12598","","","","","","","","","","","","","","","","","","","","","","","","","","","","","","","","","","","","","","","","","","","","","","","","","","","","",""
"","iti_localizer","","html-keyboard-response","129","281597","0.0-2.0-25.0-1.0","30","15837","female","null","","","","null","","23","","","281277","1","","","","","","300","12300","320","13015","300","","","","","","","","","","","","","","","","","","","","","","","","","","","","","","","","","","","","","","","","","","","","","","","","","","","",""
"","localizer","","html-keyboard-response","130","282018","0.0-2.0-26.0-0.0","30","15837","female","313","","","","68","0","24","","Stimuli/Experimental_stims/localizer/body_parts/danie-franco-jyyNiSEcCl4-unsplash.jpg","281597","1","body_parts","","0","0","1","400","12600","421","13335","","","","","","","","","","","","","","","","","","","","","","","","","","","","","","","","","","","","","","","","","","","","","","","","","","","","",""
"","iti_localizer","","html-keyboard-response","131","282340","0.0-2.0-26.0-1.0","30","15837","female","null","","","","null","","24","","","282018","1","","","","","","300","13000","322","13756","300","","","","","","","","","","","","","","","","","","","","","","","","","","","","","","","","","","","","","","","","","","","","","","","","","","","",""
"","localizer","","html-keyboard-response","132","282761","0.0-2.0-27.0-0.0","30","15837","female","326","","","","68","0","25","","Stimuli/Experimental_stims/localizer/body_parts/ramesh-iyer-CRhznMXoJlc-unsplash.jpg","282340","1","body_parts","","0","0","1","400","13300","421","14078","","","","","","","","","","","","","","","","","","","","","","","","","","","","","","","","","","","","","","","","","","","","","","","","","","","","",""
"","iti_localizer","","html-keyboard-response","133","296780","0.0-2.0-27.0-1.0","30","15837","female","null","","","","null","","25","","","282761","1","","","","","","14000","13700","14019","14499","14000","","","","","","","","","","","","","","","","","","","","","","","","","","","","","","","","","","","","","","","","","","","","","","","","","","","",""
"","localizer","","html-keyboard-response","134","297198","0.0-2.0-28.0-0.0","30","15837","female","NaN","","","","null","NaN","26","","Stimuli/Experimental_stims/localizer/objects/adriano-pucciarelli-BE7yaZnZX6o-unsplash.jpg","296780","1","objects","","0","1","0","400","27700","418","28518","","","","","","","","","","","","","","","","","","","","","","","","","","","","","","","","","","","","","","","","","","","","","","","","","","","","",""
"","iti_localizer","","html-keyboard-response","135","297518","0.0-2.0-28.0-1.0","30","15837","female","null","","","","null","","26","","","297198","1","","","","","","300","28100","320","28936","300","","","","","","","","","","","","","","","","","","","","","","","","","","","","","","","","","","","","","","","","","","","","","","","","","","","",""
"","localizer","","html-keyboard-response","136","297942","0.0-2.0-29.0-0.0","30","15837","female","200","","","","68","0","27","","Stimuli/Experimental_stims/localizer/objects/petr-sidorov-3jm5TGqtULU-unsplash.jpg","297518","1","objects","","0","0","1","400","28400","424","29256","","","","","","","","","","","","","","","","","","","","","","","","","","","","","","","","","","","","","","","","","","","","","","","","","","","","",""
"","iti_localizer","","html-keyboard-response","137","298258","0.0-2.0-29.0-1.0","30","15837","female","null","","","","null","","27","","","297942","1","","","","","","300","28800","316","29680","300","","","","","","","","","","","","","","","","","","","","","","","","","","","","","","","","","","","","","","","","","","","","","","","","","","","",""
"","localizer","","html-keyboard-response","138","298676","0.0-2.0-30.0-0.0","30","15837","female","NaN","","","","null","NaN","28","","Stimuli/Experimental_stims/localizer/objects/carlos-felipe-ramirez-mesa-HW7bfB3ERSQ-unsplash.jpg","298258","1","objects","","0","1","0","400","29100","418","29996","","","","","","","","","","","","","","","","","","","","","","","","","","","","","","","","","","","","","","","","","","","","","","","","","","","","",""
"","iti_localizer","","html-keyboard-response","139","298995","0.0-2.0-30.0-1.0","30","15837","female","null","","","","null","","28","","","298676","1","","","","","","300","29500","319","30414","300","","","","","","","","","","","","","","","","","","","","","","","","","","","","","","","","","","","","","","","","","","","","","","","","","","","",""
"","localizer","","html-keyboard-response","140","299416","0.0-2.0-31.0-0.0","30","15837","female","372","","","","68","0","29","","Stimuli/Experimental_stims/localizer/objects/raimond-klavins-ZdvDPXVvcKs-unsplash.jpg","298995","1","objects","","1","0","0","400","29800","421","30733","","","","","","","","","","","","","","","","","","","","","","","","","","","","","","","","","","","","","","","","","","","","","","","","","","","","",""
"","iti_localizer","","html-keyboard-response","141","299736","0.0-2.0-31.0-1.0","30","15837","female","null","","","","null","","29","","","299416","1","","","","","","300","30200","320","31154","300","","","","","","","","","","","","","","","","","","","","","","","","","","","","","","","","","","","","","","","","","","","","","","","","","","","",""
"","localizer","","html-keyboard-response","142","300161","0.0-2.0-32.0-0.0","30","15837","female","NaN","","","","null","NaN","30","","Stimuli/Experimental_stims/localizer/objects/adriano-pucciarelli-Jl3S1yM8gi8-unsplash.jpg","299736","1","objects","","0","1","0","400","30500","425","31474","","","","","","","","","","","","","","","","","","","","","","","","","","","","","","","","","","","","","","","","","","","","","","","","","","","","",""
"","iti_localizer","","html-keyboard-response","143","300485","0.0-2.0-32.0-1.0","30","15837","female","null","","","","null","","30","","","300161","1","","","","","","300","30900","324","31899","300","","","","","","","","","","","","","","","","","","","","","","","","","","","","","","","","","","","","","","","","","","","","","","","","","","","",""
"","localizer","","html-keyboard-response","144","300904","0.0-2.0-33.0-0.0","30","15837","female","NaN","","","","null","NaN","31","","Stimuli/Experimental_stims/localizer/objects/engin-akyurt-bbbKzTmY2Gg-unsplash.jpg","300485","1","objects","","0","1","0","400","31200","419","32223","","","","","","","","","","","","","","","","","","","","","","","","","","","","","","","","","","","","","","","","","","","","","","","","","","","","",""
"","iti_localizer","","html-keyboard-response","145","301220","0.0-2.0-33.0-1.0","30","15837","female","null","","","","null","","31","","","300904","1","","","","","","300","31600","316","32642","300","","","","","","","","","","","","","","","","","","","","","","","","","","","","","","","","","","","","","","","","","","","","","","","","","","","",""
"","localizer","","html-keyboard-response","146","301639","0.0-2.0-34.0-0.0","30","15837","female","386","","","","68","0","32","","Stimuli/Experimental_stims/localizer/objects/sam-moghadam-khamseh-kvmdsTrGOBM-unsplash.jpg","301220","1","objects","","0","0","1","400","31900","419","32958","","","","","","","","","","","","","","","","","","","","","","","","","","","","","","","","","","","","","","","","","","","","","","","","","","","","",""
"","iti_localizer","","html-keyboard-response","147","301957","0.0-2.0-34.0-1.0","30","15837","female","null","","","","null","","32","","","301639","1","","","","","","300","32300","318","33377","300","","","","","","","","","","","","","","","","","","","","","","","","","","","","","","","","","","","","","","","","","","","","","","","","","","","",""
"","localizer","","html-keyboard-response","148","302378","0.0-2.0-35.0-0.0","30","15837","female","NaN","","","","null","NaN","33","","Stimuli/Experimental_stims/localizer/objects/jiangxulei1990-eIzzzwtkBjU-unsplash.jpg","301957","1","objects","","0","1","0","400","32600","421","33695","","","","","","","","","","","","","","","","","","","","","","","","","","","","","","","","","","","","","","","","","","","","","","","","","","","","",""
"","iti_localizer","","html-keyboard-response","149","302696","0.0-2.0-35.0-1.0","30","15837","female","null","","","","null","","33","","","302378","1","","","","","","300","33000","318","34116","300","","","","","","","","","","","","","","","","","","","","","","","","","","","","","","","","","","","","","","","","","","","","","","","","","","","",""
"","localizer","","html-keyboard-response","150","303118","0.0-2.0-36.0-0.0","30","15837","female","NaN","","","","null","NaN","34","","Stimuli/Experimental_stims/localizer/objects/florian-klauer-nptLmg6jqDo-unsplash.jpg","302696","1","objects","","0","1","0","400","33300","422","34434","","","","","","","","","","","","","","","","","","","","","","","","","","","","","","","","","","","","","","","","","","","","","","","","","","","","",""
"","iti_localizer","","html-keyboard-response","151","303438","0.0-2.0-36.0-1.0","30","15837","female","null","","","","null","","34","","","303118","1","","","","","","300","33700","320","34856","300","","","","","","","","","","","","","","","","","","","","","","","","","","","","","","","","","","","","","","","","","","","","","","","","","","","",""
"","localizer","","html-keyboard-response","152","303861","0.0-2.0-37.0-0.0","30","15837","female","NaN","","","","null","NaN","35","","Stimuli/Experimental_stims/localizer/objects/ignat-dolomanov-kFBDVnmskPA-unsplash.jpg","303438","1","objects","","0","1","0","400","34000","423","35176","","","","","","","","","","","","","","","","","","","","","","","","","","","","","","","","","","","","","","","","","","","","","","","","","","","","",""
"","iti_localizer","","html-keyboard-response","153","304184","0.0-2.0-37.0-1.0","30","15837","female","null","","","","null","","35","","","303861","1","","","","","","300","34400","323","35599","300","","","","","","","","","","","","","","","","","","","","","","","","","","","","","","","","","","","","","","","","","","","","","","","","","","","",""
"","localizer","","html-keyboard-response","154","304606","0.0-2.0-38.0-0.0","30","15837","female","274","","","","68","0","36","","Stimuli/Experimental_stims/localizer/objects/andrew-petrov-TVJqDat4MAw-unsplash.jpg","304184","1","objects","","0","0","1","400","34700","422","35922","","","","","","","","","","","","","","","","","","","","","","","","","","","","","","","","","","","","","","","","","","","","","","","","","","","","",""
"","iti_localizer","","html-keyboard-response","155","304925","0.0-2.0-38.0-1.0","30","15837","female","null","","","","null","","36","","","304606","1","","","","","","300","35100","319","36344","300","","","","","","","","","","","","","","","","","","","","","","","","","","","","","","","","","","","","","","","","","","","","","","","","","","","",""
"","localizer","","html-keyboard-response","156","305347","0.0-2.0-39.0-0.0","30","15837","female","382","","","","68","0","37","","Stimuli/Experimental_stims/localizer/objects/sam-moghadam-khamseh-L_7MQsHl_aU-unsplash.jpg","304925","1","objects","","0","0","1","400","35400","422","36663","","","","","","","","","","","","","","","","","","","","","","","","","","","","","","","","","","","","","","","","","","","","","","","","","","","","",""
"","iti_localizer","","html-keyboard-response","157","305669","0.0-2.0-39.0-1.0","30","15837","female","null","","","","null","","37","","","305347","1","","","","","","300","35800","322","37085","300","","","","","","","","","","","","","","","","","","","","","","","","","","","","","","","","","","","","","","","","","","","","","","","","","","","",""
"","localizer","","html-keyboard-response","158","306093","0.0-2.0-40.0-0.0","30","15837","female","NaN","","","","null","NaN","38","","Stimuli/Experimental_stims/localizer/objects/ana-9GmAaEMMKho-unsplash.jpg","305669","1","objects","","0","1","0","400","36100","424","37407","","","","","","","","","","","","","","","","","","","","","","","","","","","","","","","","","","","","","","","","","","","","","","","","","","","","",""
"","iti_localizer","","html-keyboard-response","159","306414","0.0-2.0-40.0-1.0","30","15837","female","null","","","","null","","38","","","306093","1","","","","","","300","36500","321","37831","300","","","","","","","","","","","","","","","","","","","","","","","","","","","","","","","","","","","","","","","","","","","","","","","","","","","",""
"","localizer","","html-keyboard-response","160","306837","0.0-2.0-41.0-0.0","30","15837","female","398","","","","68","0","39","","Stimuli/Experimental_stims/localizer/objects/mockup-graphics-U6ZMEefFGx8-unsplash.jpg","306414","1","objects","","0","0","1","400","36800","423","38152","","","","","","","","","","","","","","","","","","","","","","","","","","","","","","","","","","","","","","","","","","","","","","","","","","","","",""
"","iti_localizer","","html-keyboard-response","161","307156","0.0-2.0-41.0-1.0","30","15837","female","null","","","","null","","39","","","306837","1","","","","","","300","37200","319","38575","300","","","","","","","","","","","","","","","","","","","","","","","","","","","","","","","","","","","","","","","","","","","","","","","","","","","",""
"","localizer","","html-keyboard-response","162","307578","0.0-2.0-42.0-0.0","30","15837","female","NaN","","","","null","NaN","40","","Stimuli/Experimental_stims/localizer/objects/kelly-jean-cKjbI0Y00X0-unsplash.jpg","307156","1","objects","","0","1","0","400","37500","422","38894","","","","","","","","","","","","","","","","","","","","","","","","","","","","","","","","","","","","","","","","","","","","","","","","","","","","",""
"","iti_localizer","","html-keyboard-response","163","307900","0.0-2.0-42.0-1.0","30","15837","female","null","","","","null","","40","","","307578","1","","","","","","300","37900","322","39316","300","","","","","","","","","","","","","","","","","","","","","","","","","","","","","","","","","","","","","","","","","","","","","","","","","","","",""
"","localizer","","html-keyboard-response","164","308320","0.0-2.0-43.0-0.0","30","15837","female","390","","","","68","0","41","","Stimuli/Experimental_stims/localizer/objects/eugene-chystiakov-3neSwyntbQ8-unsplash.jpg","307900","1","objects","","0","0","1","400","38200","420","39638","","","","","","","","","","","","","","","","","","","","","","","","","","","","","","","","","","","","","","","","","","","","","","","","","","","","",""
"","iti_localizer","","html-keyboard-response","165","308639","0.0-2.0-43.0-1.0","30","15837","female","null","","","","null","","41","","","308320","1","","","","","","300","38600","319","40058","300","","","","","","","","","","","","","","","","","","","","","","","","","","","","","","","","","","","","","","","","","","","","","","","","","","","",""
"","localizer","","html-keyboard-response","166","309061","0.0-2.0-44.0-0.0","30","15837","female","361","","","","68","0","42","","Stimuli/Experimental_stims/localizer/objects/lance-reis-v0FYj9iioQg-unsplash.jpg","308639","1","objects","","0","0","1","400","38900","422","40377","","","","","","","","","","","","","","","","","","","","","","","","","","","","","","","","","","","","","","","","","","","","","","","","","","","","",""
"","iti_localizer","","html-keyboard-response","167","309381","0.0-2.0-44.0-1.0","30","15837","female","null","","","","null","","42","","","309061","1","","","","","","300","39300","320","40799","300","","","","","","","","","","","","","","","","","","","","","","","","","","","","","","","","","","","","","","","","","","","","","","","","","","","",""
"","localizer","","html-keyboard-response","168","309797","0.0-2.0-45.0-0.0","30","15837","female","274","","","","68","0","43","","Stimuli/Experimental_stims/localizer/objects/annie-spratt-fbAnIjhrOL4-unsplash.jpg","309381","1","objects","","0","0","1","400","39600","416","41119","","","","","","","","","","","","","","","","","","","","","","","","","","","","","","","","","","","","","","","","","","","","","","","","","","","","",""
"","iti_localizer","","html-keyboard-response","169","310117","0.0-2.0-45.0-1.0","30","15837","female","null","","","","null","","43","","","309797","1","","","","","","300","40000","320","41535","300","","","","","","","","","","","","","","","","","","","","","","","","","","","","","","","","","","","","","","","","","","","","","","","","","","","",""
"","localizer","","html-keyboard-response","170","310539","0.0-2.0-46.0-0.0","30","15837","female","228","","","","68","0","44","","Stimuli/Experimental_stims/localizer/objects/mockup-graphics-Pj2PY-E-LfM-unsplash.jpg","310117","1","objects","","1","0","0","400","40300","422","41855","","","","","","","","","","","","","","","","","","","","","","","","","","","","","","","","","","","","","","","","","","","","","","","","","","","","",""
"","iti_localizer","","html-keyboard-response","171","310858","0.0-2.0-46.0-1.0","30","15837","female","null","","","","null","","44","","","310539","1","","","","","","300","40700","319","42277","300","","","","","","","","","","","","","","","","","","","","","","","","","","","","","","","","","","","","","","","","","","","","","","","","","","","",""
"","localizer","","html-keyboard-response","172","311280","0.0-2.0-47.0-0.0","30","15837","female","NaN","","","","null","NaN","45","","Stimuli/Experimental_stims/localizer/objects/dario-mendez-hnJ2VNZzbns-unsplash.jpg","310858","1","objects","","0","1","0","400","41000","422","42596","","","","","","","","","","","","","","","","","","","","","","","","","","","","","","","","","","","","","","","","","","","","","","","","","","","","",""
"","iti_localizer","","html-keyboard-response","173","325301","0.0-2.0-47.0-1.0","30","15837","female","null","","","","null","","45","","","311280","1","","","","","","14000","41400","14021","43018","14000","","","","","","","","","","","","","","","","","","","","","","","","","","","","","","","","","","","","","","","","","","","","","","","","","","","",""
"","localizer","","html-keyboard-response","174","325723","0.0-2.0-48.0-0.0","30","15837","female","NaN","","","","null","NaN","46","","Stimuli/Experimental_stims/localizer/faces/christian-ferrer-8vT-DgHZDG4-unsplash.jpg","325301","1","faces","","1","1","0","400","55400","422","57039","","","","","","","","","","","","","","","","","","","","","","","","","","","","","","","","","","","","","","","","","","","","","","","","","","","","",""
"","iti_localizer","","html-keyboard-response","175","326041","0.0-2.0-48.0-1.0","30","15837","female","null","","","","null","","46","","","325723","1","","","","","","300","55800","318","57461","300","","","","","","","","","","","","","","","","","","","","","","","","","","","","","","","","","","","","","","","","","","","","","","","","","","","",""
"","localizer","","html-keyboard-response","176","326462","0.0-2.0-49.0-0.0","30","15837","female","NaN","","","","null","NaN","47","","Stimuli/Experimental_stims/localizer/faces/mathias-huysmans-U4JDjYmjn1g-unsplash.jpg","326041","1","faces","","0","1","0","400","56100","421","57779","","","","","","","","","","","","","","","","","","","","","","","","","","","","","","","","","","","","","","","","","","","","","","","","","","","","",""
"","iti_localizer","","html-keyboard-response","177","326781","0.0-2.0-49.0-1.0","30","15837","female","null","","","","null","","47","","","326462","1","","","","","","300","56500","319","58200","300","","","","","","","","","","","","","","","","","","","","","","","","","","","","","","","","","","","","","","","","","","","","","","","","","","","",""
"","localizer","","html-keyboard-response","178","327199","0.0-2.0-50.0-0.0","30","15837","female","40","","","","68","0","48","","Stimuli/Experimental_stims/localizer/faces/filipe-almeida-mnEWC72eWDM-unsplash.jpg","326781","1","faces","","0","0","1","400","56800","418","58519","","","","","","","","","","","","","","","","","","","","","","","","","","","","","","","","","","","","","","","","","","","","","","","","","","","","",""
"","iti_localizer","","html-keyboard-response","179","327519","0.0-2.0-50.0-1.0","30","15837","female","null","","","","null","","48","","","327199","1","","","","","","300","57200","320","58937","300","","","","","","","","","","","","","","","","","","","","","","","","","","","","","","","","","","","","","","","","","","","","","","","","","","","",""
"","localizer","","html-keyboard-response","180","327941","0.0-2.0-51.0-0.0","30","15837","female","334","","","","68","0","49","","Stimuli/Experimental_stims/localizer/faces/midas-hofstra-tidSLv-UaNs-unsplash.jpg","327519","1","faces","","0","0","1","400","57500","422","59257","","","","","","","","","","","","","","","","","","","","","","","","","","","","","","","","","","","","","","","","","","","","","","","","","","","","",""
"","iti_localizer","","html-keyboard-response","181","328261","0.0-2.0-51.0-1.0","30","15837","female","null","","","","null","","49","","","327941","1","","","","","","300","57900","320","59679","300","","","","","","","","","","","","","","","","","","","","","","","","","","","","","","","","","","","","","","","","","","","","","","","","","","","",""
"","localizer","","html-keyboard-response","182","328680","0.0-2.0-52.0-0.0","30","15837","female","NaN","","","","null","NaN","50","","Stimuli/Experimental_stims/localizer/faces/darshan-patel-QJEVpydulGs-unsplash.jpg","328261","1","faces","","0","1","0","400","58200","419","59999","","","","","","","","","","","","","","","","","","","","","","","","","","","","","","","","","","","","","","","","","","","","","","","","","","","","",""
"","iti_localizer","","html-keyboard-response","183","329000","0.0-2.0-52.0-1.0","30","15837","female","null","","","","null","","50","","","328680","1","","","","","","300","58600","320","60418","300","","","","","","","","","","","","","","","","","","","","","","","","","","","","","","","","","","","","","","","","","","","","","","","","","","","",""
"","localizer","","html-keyboard-response","184","329419","0.0-2.0-53.0-0.0","30","15837","female","NaN","","","","null","NaN","51","","Stimuli/Experimental_stims/localizer/faces/ivan-dodig-R21SyyJDFgc-unsplash.jpg","329000","1","faces","","0","1","0","400","58900","419","60738","","","","","","","","","","","","","","","","","","","","","","","","","","","","","","","","","","","","","","","","","","","","","","","","","","","","",""
"","iti_localizer","","html-keyboard-response","185","329739","0.0-2.0-53.0-1.0","30","15837","female","null","","","","null","","51","","","329419","1","","","","","","300","59300","320","61157","300","","","","","","","","","","","","","","","","","","","","","","","","","","","","","","","","","","","","","","","","","","","","","","","","","","","",""
"","localizer","","html-keyboard-response","186","330168","0.0-2.0-54.0-0.0","30","15837","female","NaN","","","","null","NaN","52","","Stimuli/Experimental_stims/localizer/faces/austin-wade-X6Uj51n5CE8-unsplash.jpg","329739","1","faces","","0","1","0","400","59600","429","61477","","","","","","","","","","","","","","","","","","","","","","","","","","","","","","","","","","","","","","","","","","","","","","","","","","","","",""
"","iti_localizer","","html-keyboard-response","187","330485","0.0-2.0-54.0-1.0","30","15837","female","null","","","","null","","52","","","330168","1","","","","","","300","60000","317","61906","300","","","","","","","","","","","","","","","","","","","","","","","","","","","","","","","","","","","","","","","","","","","","","","","","","","","",""
"","localizer","","html-keyboard-response","188","330911","0.0-2.0-55.0-0.0","30","15837","female","NaN","","","","null","NaN","53","","Stimuli/Experimental_stims/localizer/faces/linkedin-sales-solutions-pAtA8xe_iVM-unsplash.jpg","330485","1","faces","","0","1","0","400","60300","426","62223","","","","","","","","","","","","","","","","","","","","","","","","","","","","","","","","","","","","","","","","","","","","","","","","","","","","",""
"","iti_localizer","","html-keyboard-response","189","331234","0.0-2.0-55.0-1.0","30","15837","female","null","","","","null","","53","","","330911","1","","","","","","300","60700","323","62649","300","","","","","","","","","","","","","","","","","","","","","","","","","","","","","","","","","","","","","","","","","","","","","","","","","","","",""
"","localizer","","html-keyboard-response","190","331652","0.0-2.0-56.0-0.0","30","15837","female","306","","","","68","0","54","","Stimuli/Experimental_stims/localizer/faces/pavel-anoshin-d0peGya6R5Y-unsplash.jpg","331234","1","faces","","0","0","1","400","61000","418","62972","","","","","","","","","","","","","","","","","","","","","","","","","","","","","","","","","","","","","","","","","","","","","","","","","","","","",""
"","iti_localizer","","html-keyboard-response","191","331968","0.0-2.0-56.0-1.0","30","15837","female","null","","","","null","","54","","","331652","1","","","","","","300","61400","316","63390","300","","","","","","","","","","","","","","","","","","","","","","","","","","","","","","","","","","","","","","","","","","","","","","","","","","","",""
"","localizer","","html-keyboard-response","192","332387","0.0-2.0-57.0-0.0","30","15837","female","NaN","","","","null","NaN","55","","Stimuli/Experimental_stims/localizer/faces/jeffery-erhunse-vp9mRauo68c-unsplash.jpg","331968","1","faces","","0","1","0","400","61700","419","63706","","","","","","","","","","","","","","","","","","","","","","","","","","","","","","","","","","","","","","","","","","","","","","","","","","","","",""
"","iti_localizer","","html-keyboard-response","193","332707","0.0-2.0-57.0-1.0","30","15837","female","null","","","","null","","55","","","332387","1","","","","","","300","62100","320","64125","300","","","","","","","","","","","","","","","","","","","","","","","","","","","","","","","","","","","","","","","","","","","","","","","","","","","",""
"","localizer","","html-keyboard-response","194","333129","0.0-2.0-58.0-0.0","30","15837","female","323","","","","68","0","56","","Stimuli/Experimental_stims/localizer/faces/aatik-tasneem-7omHUGhhmZ0-unsplash.jpg","332707","1","faces","","0","0","1","400","62400","422","64445","","","","","","","","","","","","","","","","","","","","","","","","","","","","","","","","","","","","","","","","","","","","","","","","","","","","",""
"","iti_localizer","","html-keyboard-response","195","333445","0.0-2.0-58.0-1.0","30","15837","female","null","","","","null","","56","","","333129","1","","","","","","300","62800","316","64867","300","","","","","","","","","","","","","","","","","","","","","","","","","","","","","","","","","","","","","","","","","","","","","","","","","","","",""
"","localizer","","html-keyboard-response","196","333864","0.0-2.0-59.0-0.0","30","15837","female","349","","","","68","0","57","","Stimuli/Experimental_stims/localizer/faces/abstral-official-cyOKLSgkgCE-unsplash.jpg","333445","1","faces","","0","0","1","400","63100","419","65183","","","","","","","","","","","","","","","","","","","","","","","","","","","","","","","","","","","","","","","","","","","","","","","","","","","","",""
"","iti_localizer","","html-keyboard-response","197","334181","0.0-2.0-59.0-1.0","30","15837","female","null","","","","null","","57","","","333864","1","","","","","","300","63500","317","65602","300","","","","","","","","","","","","","","","","","","","","","","","","","","","","","","","","","","","","","","","","","","","","","","","","","","","",""
"","localizer","","html-keyboard-response","198","334602","0.0-2.0-60.0-0.0","30","15837","female","344","","","","68","0","58","","Stimuli/Experimental_stims/localizer/faces/brooke-cagle-Nm70URdtf3c-unsplash (1).jpg","334181","1","faces","","0","0","1","400","63800","421","65919","","","","","","","","","","","","","","","","","","","","","","","","","","","","","","","","","","","","","","","","","","","","","","","","","","","","",""
"","iti_localizer","","html-keyboard-response","199","334921","0.0-2.0-60.0-1.0","30","15837","female","null","","","","null","","58","","","334602","1","","","","","","300","64200","319","66340","300","","","","","","","","","","","","","","","","","","","","","","","","","","","","","","","","","","","","","","","","","","","","","","","","","","","",""
"","localizer","","html-keyboard-response","200","335344","0.0-2.0-61.0-0.0","30","15837","female","250","","","","68","0","59","","Stimuli/Experimental_stims/localizer/faces/icons8-team-6LZuSzSwso0-unsplash.jpg","334921","1","faces","","0","0","1","400","64500","423","66659","","","","","","","","","","","","","","","","","","","","","","","","","","","","","","","","","","","","","","","","","","","","","","","","","","","","",""
"","iti_localizer","","html-keyboard-response","201","335664","0.0-2.0-61.0-1.0","30","15837","female","null","","","","null","","59","","","335344","1","","","","","","300","64900","320","67082","300","","","","","","","","","","","","","","","","","","","","","","","","","","","","","","","","","","","","","","","","","","","","","","","","","","","",""
"","localizer","","html-keyboard-response","202","336087","0.0-2.0-62.0-0.0","30","15837","female","294","","","","68","0","60","","Stimuli/Experimental_stims/localizer/faces/christina-wocintechchat-com-0Zx1bDv5BNY-unsplash.jpg","335664","1","faces","","0","0","1","400","65200","423","67402","","","","","","","","","","","","","","","","","","","","","","","","","","","","","","","","","","","","","","","","","","","","","","","","","","","","",""
"","iti_localizer","","html-keyboard-response","203","336406","0.0-2.0-62.0-1.0","30","15837","female","null","","","","null","","60","","","336087","1","","","","","","300","65600","319","67825","300","","","","","","","","","","","","","","","","","","","","","","","","","","","","","","","","","","","","","","","","","","","","","","","","","","","",""
"","localizer","","html-keyboard-response","204","336823","0.0-2.0-63.0-0.0","30","15837","female","245","","","","68","0","61","","Stimuli/Experimental_stims/localizer/faces/juan-encalada-WC7KIHo13Fc-unsplash.jpg","336406","1","faces","","0","0","1","400","65900","417","68144","","","","","","","","","","","","","","","","","","","","","","","","","","","","","","","","","","","","","","","","","","","","","","","","","","","","",""
"","iti_localizer","","html-keyboard-response","205","337143","0.0-2.0-63.0-1.0","30","15837","female","null","","","","null","","61","","","336823","1","","","","","","300","66300","320","68561","300","","","","","","","","","","","","","","","","","","","","","","","","","","","","","","","","","","","","","","","","","","","","","","","","","","","",""
"","localizer","","html-keyboard-response","206","337571","0.0-2.0-64.0-0.0","30","15837","female","228","","","","68","0","62","","Stimuli/Experimental_stims/localizer/faces/nick-karvounis-JyO_szjGvUw-unsplash.jpg","337143","1","faces","","0","0","1","400","66600","428","68881","","","","","","","","","","","","","","","","","","","","","","","","","","","","","","","","","","","","","","","","","","","","","","","","","","","","",""
"","iti_localizer","","html-keyboard-response","207","337891","0.0-2.0-64.0-1.0","30","15837","female","null","","","","null","","62","","","337571","1","","","","","","300","67000","320","69309","300","","","","","","","","","","","","","","","","","","","","","","","","","","","","","","","","","","","","","","","","","","","","","","","","","","","",""
"","localizer","","html-keyboard-response","208","338315","0.0-2.0-65.0-0.0","30","15837","female","254","","","","68","0","63","","Stimuli/Experimental_stims/localizer/faces/carlos-vaz-KP4bxnxAilU-unsplash.jpg","337891","1","faces","","0","0","1","400","67300","424","69629","","","","","","","","","","","","","","","","","","","","","","","","","","","","","","","","","","","","","","","","","","","","","","","","","","","","",""
"","iti_localizer","","html-keyboard-response","209","338635","0.0-2.0-65.0-1.0","30","15837","female","null","","","","null","","63","","","338315","1","","","","","","300","67700","320","70053","300","","","","","","","","","","","","","","","","","","","","","","","","","","","","","","","","","","","","","","","","","","","","","","","","","","","",""
"","localizer","","html-keyboard-response","210","339056","0.0-2.0-66.0-0.0","30","15837","female","255","","","","68","0","64","","Stimuli/Experimental_stims/localizer/faces/tyler-nix-ZGa9d1a_4tA-unsplash.jpg","338635","1","faces","","1","0","0","400","68000","421","70373","","","","","","","","","","","","","","","","","","","","","","","","","","","","","","","","","","","","","","","","","","","","","","","","","","","","",""
"","iti_localizer","","html-keyboard-response","211","339379","0.0-2.0-66.0-1.0","30","15837","female","null","","","","null","","64","","","339056","1","","","","","","300","68400","323","70794","300","","","","","","","","","","","","","","","","","","","","","","","","","","","","","","","","","","","","","","","","","","","","","","","","","","","",""
"","localizer","","html-keyboard-response","212","339805","0.0-2.0-67.0-0.0","30","15837","female","25","","","","75","1","65","","Stimuli/Experimental_stims/localizer/faces/samuel-dixon--fQ5XNOcqFQ-unsplash.jpg","339379","1","faces","","0","0","0","400","68700","426","71117","","","","","","","","","","","","","","","","","","","","","","","","","","","","","","","","","","","","","","","","","","","","","","","","","","","","",""
"","iti_localizer","","html-keyboard-response","213","353826","0.0-2.0-67.0-1.0","30","15837","female","null","","","","null","","65","","","339805","1","","","","","","14000","69100","14021","71543","14000","","","","","","","","","","","","","","","","","","","","","","","","","","","","","","","","","","","","","","","","","","","","","","","","","","","",""
"","localizer","","html-keyboard-response","214","354247","0.0-2.0-68.0-0.0","30","15837","female","NaN","","","","null","NaN","66","","Stimuli/Experimental_stims/localizer/body_parts/nihal-karkala-LlOfbQD-IJ0-unsplash.jpg","353826","1","body_parts","","1","1","0","400","83100","421","85564","","","","","","","","","","","","","","","","","","","","","","","","","","","","","","","","","","","","","","","","","","","","","","","","","","","","",""
"","iti_localizer","","html-keyboard-response","215","354569","0.0-2.0-68.0-1.0","30","15837","female","null","","","","null","","66","","","354247","1","","","","","","300","83500","322","85985","300","","","","","","","","","","","","","","","","","","","","","","","","","","","","","","","","","","","","","","","","","","","","","","","","","","","",""
"","localizer","","html-keyboard-response","216","354991","0.0-2.0-69.0-0.0","30","15837","female","NaN","","","","null","NaN","67","","Stimuli/Experimental_stims/localizer/body_parts/nick-page-WTNmgJtwzGI-unsplash.jpg","354569","1","body_parts","","0","1","0","400","83800","422","86307","","","","","","","","","","","","","","","","","","","","","","","","","","","","","","","","","","","","","","","","","","","","","","","","","","","","",""
"","iti_localizer","","html-keyboard-response","217","355309","0.0-2.0-69.0-1.0","30","15837","female","null","","","","null","","67","","","354991","1","","","","","","300","84200","318","86729","300","","","","","","","","","","","","","","","","","","","","","","","","","","","","","","","","","","","","","","","","","","","","","","","","","","","",""
"","localizer","","html-keyboard-response","218","355731","0.0-2.0-70.0-0.0","30","15837","female","NaN","","","","null","NaN","68","","Stimuli/Experimental_stims/localizer/body_parts/sina-rezakhani-d1gQi0Jl05U-unsplash (1).jpg","355309","1","body_parts","","0","1","0","400","84500","422","87047","","","","","","","","","","","","","","","","","","","","","","","","","","","","","","","","","","","","","","","","","","","","","","","","","","","","",""
"","iti_localizer","","html-keyboard-response","219","356051","0.0-2.0-70.0-1.0","30","15837","female","null","","","","null","","68","","","355731","1","","","","","","300","84900","320","87469","300","","","","","","","","","","","","","","","","","","","","","","","","","","","","","","","","","","","","","","","","","","","","","","","","","","","",""
"","localizer","","html-keyboard-response","220","356477","0.0-2.0-71.0-0.0","30","15837","female","NaN","","","","null","NaN","69","","Stimuli/Experimental_stims/localizer/body_parts/meghan-thompson-U1b8OB0QpIo-unsplash.jpg","356051","1","body_parts","","0","1","0","400","85200","426","87789","","","","","","","","","","","","","","","","","","","","","","","","","","","","","","","","","","","","","","","","","","","","","","","","","","","","",""
"","iti_localizer","","html-keyboard-response","221","356796","0.0-2.0-71.0-1.0","30","15837","female","null","","","","null","","69","","","356477","1","","","","","","300","85600","319","88215","300","","","","","","","","","","","","","","","","","","","","","","","","","","","","","","","","","","","","","","","","","","","","","","","","","","","",""
"","localizer","","html-keyboard-response","222","357216","0.0-2.0-72.0-0.0","30","15837","female","NaN","","","","null","NaN","70","","Stimuli/Experimental_stims/localizer/body_parts/davidcohen-qghuLqyh3nE-unsplash.jpg","356796","1","body_parts","","0","1","0","400","85900","420","88534","","","","","","","","","","","","","","","","","","","","","","","","","","","","","","","","","","","","","","","","","","","","","","","","","","","","",""
"","iti_localizer","","html-keyboard-response","223","357537","0.0-2.0-72.0-1.0","30","15837","female","null","","","","null","","70","","","357216","1","","","","","","300","86300","321","88954","300","","","","","","","","","","","","","","","","","","","","","","","","","","","","","","","","","","","","","","","","","","","","","","","","","","","",""
"","localizer","","html-keyboard-response","224","357955","0.0-2.0-73.0-0.0","30","15837","female","NaN","","","","null","NaN","71","","Stimuli/Experimental_stims/localizer/body_parts/sincerely-media-QyzlAZjm0r0-unsplash.jpg","357537","1","body_parts","","0","1","0","400","86600","418","89275","","","","","","","","","","","","","","","","","","","","","","","","","","","","","","","","","","","","","","","","","","","","","","","","","","","","",""
"","iti_localizer","","html-keyboard-response","225","358274","0.0-2.0-73.0-1.0","30","15837","female","null","","","","null","","71","","","357955","1","","","","","","300","87000","319","89693","300","","","","","","","","","","","","","","","","","","","","","","","","","","","","","","","","","","","","","","","","","","","","","","","","","","","",""
"","localizer","","html-keyboard-response","226","358690","0.0-2.0-74.0-0.0","30","15837","female","NaN","","","","null","NaN","72","","Stimuli/Experimental_stims/localizer/body_parts/juja-han-Z8-6EI2tYtw-unsplash.jpg","358274","1","body_parts","","0","1","0","400","87300","416","90012","","","","","","","","","","","","","","","","","","","","","","","","","","","","","","","","","","","","","","","","","","","","","","","","","","","","",""
"","iti_localizer","","html-keyboard-response","227","359014","0.0-2.0-74.0-1.0","30","15837","female","null","","","","null","","72","","","358690","1","","","","","","300","87700","324","90428","300","","","","","","","","","","","","","","","","","","","","","","","","","","","","","","","","","","","","","","","","","","","","","","","","","","","",""
"","localizer","","html-keyboard-response","228","359436","0.0-2.0-75.0-0.0","30","15837","female","330","","","","68","0","73","","Stimuli/Experimental_stims/localizer/body_parts/natalie-grainger-8uB5kFKWWkk-unsplash.jpg","359014","1","body_parts","","0","0","1","400","88000","422","90752","","","","","","","","","","","","","","","","","","","","","","","","","","","","","","","","","","","","","","","","","","","","","","","","","","","","",""
"","iti_localizer","","html-keyboard-response","229","359755","0.0-2.0-75.0-1.0","30","15837","female","null","","","","null","","73","","","359436","1","","","","","","300","88400","319","91174","300","","","","","","","","","","","","","","","","","","","","","","","","","","","","","","","","","","","","","","","","","","","","","","","","","","","",""
"","localizer","","html-keyboard-response","230","360172","0.0-2.0-76.0-0.0","30","15837","female","NaN","","","","null","NaN","74","","Stimuli/Experimental_stims/localizer/body_parts/debby-hudson--B_757qSA4k-unsplash.jpg","359755","1","body_parts","","0","1","0","400","88700","417","91493","","","","","","","","","","","","","","","","","","","","","","","","","","","","","","","","","","","","","","","","","","","","","","","","","","","","",""
"","iti_localizer","","html-keyboard-response","231","360491","0.0-2.0-76.0-1.0","30","15837","female","null","","","","null","","74","","","360172","1","","","","","","300","89100","319","91910","300","","","","","","","","","","","","","","","","","","","","","","","","","","","","","","","","","","","","","","","","","","","","","","","","","","","",""
"","localizer","","html-keyboard-response","232","360908","0.0-2.0-77.0-0.0","30","15837","female","392","","","","68","0","75","","Stimuli/Experimental_stims/localizer/body_parts/pure-julia-E9Q4bqYHtIM-unsplash.jpg","360491","1","body_parts","","0","0","1","400","89400","417","92229","","","","","","","","","","","","","","","","","","","","","","","","","","","","","","","","","","","","","","","","","","","","","","","","","","","","",""
"","iti_localizer","","html-keyboard-response","233","361228","0.0-2.0-77.0-1.0","30","15837","female","null","","","","null","","75","","","360908","1","","","","","","300","89800","320","92646","300","","","","","","","","","","","","","","","","","","","","","","","","","","","","","","","","","","","","","","","","","","","","","","","","","","","",""
"","localizer","","html-keyboard-response","234","361649","0.0-2.0-78.0-0.0","30","15837","female","NaN","","","","null","NaN","76","","Stimuli/Experimental_stims/localizer/body_parts/charles-etoroma-1fo0biloDOc-unsplash.jpg","361228","1","body_parts","","0","1","0","400","90100","421","92966","","","","","","","","","","","","","","","","","","","","","","","","","","","","","","","","","","","","","","","","","","","","","","","","","","","","",""
"","iti_localizer","","html-keyboard-response","235","361969","0.0-2.0-78.0-1.0","30","15837","female","null","","","","null","","76","","","361649","1","","","","","","300","90500","320","93387","300","","","","","","","","","","","","","","","","","","","","","","","","","","","","","","","","","","","","","","","","","","","","","","","","","","","",""
"","localizer","","html-keyboard-response","236","362390","0.0-2.0-79.0-0.0","30","15837","female","NaN","","","","null","NaN","77","","Stimuli/Experimental_stims/localizer/body_parts/david-fanuel-qnV8X7OViNY-unsplash.jpg","361969","1","body_parts","","0","1","0","400","90800","421","93707","","","","","","","","","","","","","","","","","","","","","","","","","","","","","","","","","","","","","","","","","","","","","","","","","","","","",""
"","iti_localizer","","html-keyboard-response","237","362712","0.0-2.0-79.0-1.0","30","15837","female","null","","","","null","","77","","","362390","1","","","","","","300","91200","322","94128","300","","","","","","","","","","","","","","","","","","","","","","","","","","","","","","","","","","","","","","","","","","","","","","","","","","","",""
"","localizer","","html-keyboard-response","238","363132","0.0-2.0-80.0-0.0","30","15837","female","NaN","","","","null","NaN","78","","Stimuli/Experimental_stims/localizer/body_parts/diana-polekhina-SwWjCbIIoFE-unsplash.jpg","362712","1","body_parts","","0","1","0","400","91500","420","94450","","","","","","","","","","","","","","","","","","","","","","","","","","","","","","","","","","","","","","","","","","","","","","","","","","","","",""
"","iti_localizer","","html-keyboard-response","239","363454","0.0-2.0-80.0-1.0","30","15837","female","null","","","","null","","78","","","363132","1","","","","","","300","91900","322","94870","300","","","","","","","","","","","","","","","","","","","","","","","","","","","","","","","","","","","","","","","","","","","","","","","","","","","",""
"","localizer","","html-keyboard-response","240","363875","0.0-2.0-81.0-0.0","30","15837","female","NaN","","","","null","NaN","79","","Stimuli/Experimental_stims/localizer/body_parts/ant-rozetsky-bXQd8JXx0vs-unsplash.jpg","363454","1","body_parts","","0","1","0","400","92200","421","95192","","","","","","","","","","","","","","","","","","","","","","","","","","","","","","","","","","","","","","","","","","","","","","","","","","","","",""
"","iti_localizer","","html-keyboard-response","241","364195","0.0-2.0-81.0-1.0","30","15837","female","null","","","","null","","79","","","363875","1","","","","","","300","92600","320","95613","300","","","","","","","","","","","","","","","","","","","","","","","","","","","","","","","","","","","","","","","","","","","","","","","","","","","",""
"","localizer","","html-keyboard-response","242","364629","0.0-2.0-82.0-0.0","30","15837","female","NaN","","","","null","NaN","80","","Stimuli/Experimental_stims/localizer/body_parts/callum-skelton-3KLMq7y46nA-unsplash.jpg","364195","1","body_parts","","0","1","0","400","92900","434","95933","","","","","","","","","","","","","","","","","","","","","","","","","","","","","","","","","","","","","","","","","","","","","","","","","","","","",""
"","iti_localizer","","html-keyboard-response","243","364948","0.0-2.0-82.0-1.0","30","15837","female","null","","","","null","","80","","","364629","1","","","","","","300","93300","319","96367","300","","","","","","","","","","","","","","","","","","","","","","","","","","","","","","","","","","","","","","","","","","","","","","","","","","","",""
"","localizer","","html-keyboard-response","244","365366","0.0-2.0-83.0-0.0","30","15837","female","NaN","","","","null","NaN","81","","Stimuli/Experimental_stims/localizer/body_parts/freestocks-qw9LFf5T790-unsplash.jpg","364948","1","body_parts","","0","1","0","400","93600","418","96686","","","","","","","","","","","","","","","","","","","","","","","","","","","","","","","","","","","","","","","","","","","","","","","","","","","","",""
"","iti_localizer","","html-keyboard-response","245","365683","0.0-2.0-83.0-1.0","30","15837","female","null","","","","null","","81","","","365366","1","","","","","","300","94000","317","97104","300","","","","","","","","","","","","","","","","","","","","","","","","","","","","","","","","","","","","","","","","","","","","","","","","","","","",""
"","localizer","","html-keyboard-response","246","366106","0.0-2.0-84.0-0.0","30","15837","female","10","","","","68","0","82","","Stimuli/Experimental_stims/localizer/body_parts/carlos-henrique-NAOJKwZswbs-unsplash.jpg","365683","1","body_parts","","0","0","1","400","94300","423","97421","","","","","","","","","","","","","","","","","","","","","","","","","","","","","","","","","","","","","","","","","","","","","","","","","","","","",""
"","iti_localizer","","html-keyboard-response","247","366427","0.0-2.0-84.0-1.0","30","15837","female","null","","","","null","","82","","","366106","1","","","","","","300","94700","321","97844","300","","","","","","","","","","","","","","","","","","","","","","","","","","","","","","","","","","","","","","","","","","","","","","","","","","","",""
