"success","ttype","start_time","trial_type","trial_index","time_elapsed","internal_node_id","age","PID","gender","rt","responses","view_history","repeat_instructions","key_press","response","index","stimulus_index","path","start_time_elapsed","left_chosen","chosen_stimulus","unchosen_stimulus","chosen_category","unchosen_category","chosen_rating","unchosen_rating","chosen_path","unchosen_path","no_response","pair_id","practice","scramble_screen_time","scramble_instructed_side","stim_type","iti","block","run","left_stimulus","right_stimulus","left_category","right_category","left_path","right_path","left_rating","right_rating","duration","onset","duration_time_elapsed","onset_time_elapsed","trial_duration","scramble_acc","scramble_no_response","warning"
"true","full_screen","d08132023hr0042","fullscreen","0","2041","0.0-0.0-0.0","11","17399","11","","","","","","","","","","","","","","","","","","","","","","","","","","","","","","","","","","","","","","","","","","","",""
"","get_id","","survey-text","1","5226","0.0-0.0-1.0","11","17399","11","3182","{""Q0"":""11"",""Q1"":""11""}","","","","","","","","","","","","","","","","","","","","","","","","","","","","","","","","","","","","","","","","","",""
"","ratings_instructions","","instructions","2","6544","0.0-1.0-0.0-0.0","11","17399","11","1269","","[{""page_index"":0,""viewing_time"":1090},{""page_index"":1,""viewing_time"":178}]","","","","","","","","","","","","","","","","","","","","","","","","","","","","","","","","","","","","","","","","",""
"","rating_comprehension_check","","survey-multi-choice","3","9542","0.0-1.0-0.0-1.0","11","17399","11","2995","{""Q0"":""True"",""Q1"":""Mouse""}","","0","","","","","","","","","","","","","","","","","","","","","","","","","","","","","","","","","","","","","","","",""
"","","","html-keyboard-response","4","10952","0.0-1.0-1.0","11","17399","11","1407","","","","68","","","","","","","","","","","","","","","","","","","","","","","","","","","","","","","","","","","","","","",""
"","rating","","html-slider-response","5","12313","0.0-1.0-2.0","11","17399","11","1358","","","","","50","0","23","Stimuli/Experimental_stims/faces/rikonavt-HQjfrvdTfak-unsplash.jpg","","","","","","","","","","","","","","","","","","","","","","","","","","","","","","","","","","",""
"","rating","","html-slider-response","6","12476","0.0-1.0-3.0","11","17399","11","160","","","","","50","1","17","Stimuli/Experimental_stims/faces/good-faces-xmSWVeGEnJw-unsplash.jpg","","","","","","","","","","","","","","","","","","","","","","","","","","","","","","","","","","",""
"","rating","","html-slider-response","7","12709","0.0-1.0-4.0","11","17399","11","230","","","","","50","2","10","Stimuli/Experimental_stims/outdoor_scenes/shannon-kunkle-dM8INmkyDas-unsplash.jpg","","","","","","","","","","","","","","","","","","","","","","","","","","","","","","","","","","",""
"","rating","","html-slider-response","8","12959","0.0-1.0-5.0","11","17399","11","248","","","","","50","3","37","Stimuli/Experimental_stims/objects/alexander-andrews-VLGWE_SumrA-unsplash.jpg","","","","","","","","","","","","","","","","","","","","","","","","","","","","","","","","","","",""
"","rating","","html-slider-response","9","13139","0.0-1.0-6.0","11","17399","11","177","","","","","50","4","12","Stimuli/Experimental_stims/faces/aiony-haust-jmATI5Q_YgY-unsplash.jpg","","","","","","","","","","","","","","","","","","","","","","","","","","","","","","","","","","",""
"","rating","","html-slider-response","10","13318","0.0-1.0-7.0","11","17399","11","177","","","","","50","5","13","Stimuli/Experimental_stims/faces/daniel-rigdon-dXmXKPP2L4E-unsplash.jpg","","","","","","","","","","","","","","","","","","","","","","","","","","","","","","","","","","",""
"","rating","","html-slider-response","11","13488","0.0-1.0-8.0","11","17399","11","168","","","","","50","6","46","Stimuli/Experimental_stims/objects/mockup-graphics-PNsj6RiHAF4-unsplash.jpg","","","","","","","","","","","","","","","","","","","","","","","","","","","","","","","","","","",""
"","rating","","html-slider-response","12","13651","0.0-1.0-9.0","11","17399","11","159","","","","","50","7","0","Stimuli/Experimental_stims/outdoor_scenes/aleksandra-boguslawska-MS7KD9Ti7FQ-unsplash.jpg","","","","","","","","","","","","","","","","","","","","","","","","","","","","","","","","","","",""
"","rating","","html-slider-response","13","13821","0.0-1.0-10.0","11","17399","11","167","","","","","50","8","42","Stimuli/Experimental_stims/objects/jess-bailey-nOeVi8DsN8U-unsplash.jpg","","","","","","","","","","","","","","","","","","","","","","","","","","","","","","","","","","",""
"","rating","","html-slider-response","14","13999","0.0-1.0-11.0","11","17399","11","175","","","","","50","9","29","Stimuli/Experimental_stims/body_parts/manuel-schinner-ZwjFuJ7ebpk-unsplash.jpg","","","","","","","","","","","","","","","","","","","","","","","","","","","","","","","","","","",""
"","rating","","html-slider-response","15","14165","0.0-1.0-12.0","11","17399","11","164","","","","","50","10","45","Stimuli/Experimental_stims/objects/leohoho-rngTKHXumy0-unsplash.jpg","","","","","","","","","","","","","","","","","","","","","","","","","","","","","","","","","","",""
"","rating","","html-slider-response","16","14345","0.0-1.0-13.0","11","17399","11","178","","","","","50","11","16","Stimuli/Experimental_stims/faces/freddy-kearney-o-ioeoATbIM-unsplash.jpg","","","","","","","","","","","","","","","","","","","","","","","","","","","","","","","","","","",""
"","rating","","html-slider-response","17","14524","0.0-1.0-14.0","11","17399","11","176","","","","","50","12","35","Stimuli/Experimental_stims/body_parts/wc-so-KH4AAPjb-tI-unsplash.jpg","","","","","","","","","","","","","","","","","","","","","","","","","","","","","","","","","","",""
"","rating","","html-slider-response","18","14687","0.0-1.0-15.0","11","17399","11","160","","","","","50","13","8","Stimuli/Experimental_stims/outdoor_scenes/samsommer-vddccTqwal8-unsplash.jpg","","","","","","","","","","","","","","","","","","","","","","","","","","","","","","","","","","",""
"","rating","","html-slider-response","19","14861","0.0-1.0-16.0","11","17399","11","172","","","","","50","14","18","Stimuli/Experimental_stims/faces/jessica-radanavong-mrYkTuAesKE-unsplash.jpg","","","","","","","","","","","","","","","","","","","","","","","","","","","","","","","","","","",""
"","rating","","html-slider-response","20","15034","0.0-1.0-17.0","11","17399","11","170","","","","","50","15","6","Stimuli/Experimental_stims/outdoor_scenes/meng-ji-8BH_M-53CyA-unsplash.jpg","","","","","","","","","","","","","","","","","","","","","","","","","","","","","","","","","","",""
"","rating","","html-slider-response","21","15213","0.0-1.0-18.0","11","17399","11","176","","","","","50","16","2","Stimuli/Experimental_stims/outdoor_scenes/bruno-van-der-kraan-qez8mNJ3ilU-unsplash.jpg","","","","","","","","","","","","","","","","","","","","","","","","","","","","","","","","","","",""
"","rating","","html-slider-response","22","15392","0.0-1.0-19.0","11","17399","11","176","","","","","50","17","33","Stimuli/Experimental_stims/body_parts/tucker-good-36skLT5jZcc-unsplash.jpg","","","","","","","","","","","","","","","","","","","","","","","","","","","","","","","","","","",""
"","rating","","html-slider-response","23","15570","0.0-1.0-20.0","11","17399","11","175","","","","","50","18","25","Stimuli/Experimental_stims/body_parts/engin-akyurt-Q2rfH3GW39c-unsplash.jpg","","","","","","","","","","","","","","","","","","","","","","","","","","","","","","","","","","",""
"","rating","","html-slider-response","24","15738","0.0-1.0-21.0","11","17399","11","166","","","","","50","19","4","Stimuli/Experimental_stims/outdoor_scenes/jarrett-kow-1ZOyYPOBn7I-unsplash.jpg","","","","","","","","","","","","","","","","","","","","","","","","","","","","","","","","","","",""
"","rating","","html-slider-response","25","15916","0.0-1.0-22.0","11","17399","11","176","","","","","50","20","11","Stimuli/Experimental_stims/outdoor_scenes/stephen-leonardi-gyIRjKPXupE-unsplash.jpg","","","","","","","","","","","","","","","","","","","","","","","","","","","","","","","","","","",""
"","rating","","html-slider-response","26","16096","0.0-1.0-23.0","11","17399","11","177","","","","","50","21","47","Stimuli/Experimental_stims/objects/ronaldo-arthur-vidal-Cdz_lvnl37k-unsplash.jpg","","","","","","","","","","","","","","","","","","","","","","","","","","","","","","","","","","",""
"","rating","","html-slider-response","27","16282","0.0-1.0-24.0","11","17399","11","183","","","","","50","22","39","Stimuli/Experimental_stims/objects/charlesdeluvio-1-nx1QR5dTE-unsplash.jpg","","","","","","","","","","","","","","","","","","","","","","","","","","","","","","","","","","",""
"","rating","","html-slider-response","28","16646","0.0-1.0-25.0","11","17399","11","361","","","","","50","23","3","Stimuli/Experimental_stims/outdoor_scenes/henry-be-NLF6hTe4PAg-unsplash.jpg","","","","","","","","","","","","","","","","","","","","","","","","","","","","","","","","","","",""
"","rating","","html-slider-response","29","16820","0.0-1.0-26.0","11","17399","11","172","","","","","50","24","34","Stimuli/Experimental_stims/body_parts/wagner-santos-mBWMvIuVnso-unsplash.jpg","","","","","","","","","","","","","","","","","","","","","","","","","","","","","","","","","","",""
"","rating","","html-slider-response","30","17007","0.0-1.0-27.0","11","17399","11","184","","","","","50","25","27","Stimuli/Experimental_stims/body_parts/heike-mintel-i_Gns0ELnLw-unsplash.jpg","","","","","","","","","","","","","","","","","","","","","","","","","","","","","","","","","","",""
"","rating","","html-slider-response","31","17194","0.0-1.0-28.0","11","17399","11","185","","","","","50","26","43","Stimuli/Experimental_stims/objects/jonathan-greenaway-Y4hGgeiFn3s-unsplash.jpg","","","","","","","","","","","","","","","","","","","","","","","","","","","","","","","","","","",""
"","rating","","html-slider-response","32","17380","0.0-1.0-29.0","11","17399","11","183","","","","","50","27","40","Stimuli/Experimental_stims/objects/fabian-blank-pElSkGRA2NU-unsplash.jpg","","","","","","","","","","","","","","","","","","","","","","","","","","","","","","","","","","",""
"","rating","","html-slider-response","33","17576","0.0-1.0-30.0","11","17399","11","193","","","","","50","28","38","Stimuli/Experimental_stims/objects/art-lasovsky-8XddFc6NkBY-unsplash.jpg","","","","","","","","","","","","","","","","","","","","","","","","","","","","","","","","","","",""
"","rating","","html-slider-response","34","17765","0.0-1.0-31.0","11","17399","11","186","","","","","50","29","9","Stimuli/Experimental_stims/outdoor_scenes/sergey-pesterev-y-b_FOmJXdg-unsplash.jpg","","","","","","","","","","","","","","","","","","","","","","","","","","","","","","","","","","",""
"","rating","","html-slider-response","35","17958","0.0-1.0-32.0","11","17399","11","190","","","","","50","30","19","Stimuli/Experimental_stims/faces/joel-mott-LaK153ghdig-unsplash.jpg","","","","","","","","","","","","","","","","","","","","","","","","","","","","","","","","","","",""
"","rating","","html-slider-response","36","18150","0.0-1.0-33.0","11","17399","11","190","","","","","50","31","24","Stimuli/Experimental_stims/body_parts/clay-banks-LjqARJaJotc-unsplash.jpg","","","","","","","","","","","","","","","","","","","","","","","","","","","","","","","","","","",""
"","rating","","html-slider-response","37","18339","0.0-1.0-34.0","11","17399","11","187","","","","","50","32","14","Stimuli/Experimental_stims/faces/david-siglin-UuW4psOb388-unsplash.jpg","","","","","","","","","","","","","","","","","","","","","","","","","","","","","","","","","","",""
"","rating","","html-slider-response","38","18534","0.0-1.0-35.0","11","17399","11","191","","","","","50","33","44","Stimuli/Experimental_stims/objects/kuiye-chen-NuOGFo4PudE-unsplash.jpg","","","","","","","","","","","","","","","","","","","","","","","","","","","","","","","","","","",""
"","rating","","html-slider-response","39","18712","0.0-1.0-36.0","11","17399","11","175","","","","","50","34","15","Stimuli/Experimental_stims/faces/erik-lucatero-d2MSDujJl2g-unsplash.jpg","","","","","","","","","","","","","","","","","","","","","","","","","","","","","","","","","","",""
"","rating","","html-slider-response","40","18913","0.0-1.0-37.0","11","17399","11","197","","","","","50","35","1","Stimuli/Experimental_stims/outdoor_scenes/ashim-d-silva-S2Q5mdOrrVc-unsplash.jpg","","","","","","","","","","","","","","","","","","","","","","","","","","","","","","","","","","",""
"","rating","","html-slider-response","41","19109","0.0-1.0-38.0","11","17399","11","194","","","","","50","36","22","Stimuli/Experimental_stims/faces/ravi-patel-VMGAbeeJTKo-unsplash.jpg","","","","","","","","","","","","","","","","","","","","","","","","","","","","","","","","","","",""
"","rating","","html-slider-response","42","19287","0.0-1.0-39.0","11","17399","11","174","","","","","50","37","26","Stimuli/Experimental_stims/body_parts/engin-akyurt-x_3gyC42btc-unsplash.jpg","","","","","","","","","","","","","","","","","","","","","","","","","","","","","","","","","","",""
"","rating","","html-slider-response","43","19481","0.0-1.0-40.0","11","17399","11","191","","","","","50","38","31","Stimuli/Experimental_stims/body_parts/sincerely-media-VN6DbKajo5s-unsplash.jpg","","","","","","","","","","","","","","","","","","","","","","","","","","","","","","","","","","",""
"","rating","","html-slider-response","44","19672","0.0-1.0-41.0","11","17399","11","189","","","","","50","39","36","Stimuli/Experimental_stims/objects/alexander-andrews-JYGnB9gTCls-unsplash.jpg","","","","","","","","","","","","","","","","","","","","","","","","","","","","","","","","","","",""
"","rating","","html-slider-response","45","19879","0.0-1.0-42.0","11","17399","11","205","","","","","50","40","28","Stimuli/Experimental_stims/body_parts/ira-vishnevskaya-8DQAvdCby1I-unsplash.jpg","","","","","","","","","","","","","","","","","","","","","","","","","","","","","","","","","","",""
"","rating","","html-slider-response","46","20079","0.0-1.0-43.0","11","17399","11","197","","","","","50","41","20","Stimuli/Experimental_stims/faces/justin-chen-J7Cf1Gch49E-unsplash.jpg","","","","","","","","","","","","","","","","","","","","","","","","","","","","","","","","","","",""
"","rating","","html-slider-response","47","20276","0.0-1.0-44.0","11","17399","11","194","","","","","50","42","41","Stimuli/Experimental_stims/objects/insung-yoon-w2JtIQQXoRU-unsplash.jpg","","","","","","","","","","","","","","","","","","","","","","","","","","","","","","","","","","",""
"","rating","","html-slider-response","48","20469","0.0-1.0-45.0","11","17399","11","190","","","","","50","43","7","Stimuli/Experimental_stims/outdoor_scenes/petr-vysohlid-9fqwGqGLUxc-unsplash.jpg","","","","","","","","","","","","","","","","","","","","","","","","","","","","","","","","","","",""
"","rating","","html-slider-response","49","20672","0.0-1.0-46.0","11","17399","11","200","","","","","50","44","5","Stimuli/Experimental_stims/outdoor_scenes/jeff-king-bJHWJeiHfHc-unsplash.jpg","","","","","","","","","","","","","","","","","","","","","","","","","","","","","","","","","","",""
"","rating","","html-slider-response","50","20867","0.0-1.0-47.0","11","17399","11","192","","","","","50","45","30","Stimuli/Experimental_stims/body_parts/mika-korhonen-Xodzxosar18-unsplash.jpg","","","","","","","","","","","","","","","","","","","","","","","","","","","","","","","","","","",""
"","rating","","html-slider-response","51","21078","0.0-1.0-48.0","11","17399","11","208","","","","","50","46","32","Stimuli/Experimental_stims/body_parts/towfiqu-barbhuiya-3AsiVDsZnHg-unsplash.jpg","","","","","","","","","","","","","","","","","","","","","","","","","","","","","","","","","","",""
"","rating","","html-slider-response","52","21270","0.0-1.0-49.0","11","17399","11","189","","","","","50","47","21","Stimuli/Experimental_stims/faces/leilani-angel-K84vnnzxmTQ-unsplash.jpg","","","","","","","","","","","","","","","","","","","","","","","","","","","","","","","","","","",""
"","deliberation_instructions","","instructions","53","26430","0.0-3.0-0.0-0.0","11","17399","11","5130","","[{""page_index"":0,""viewing_time"":1532},{""page_index"":1,""viewing_time"":202},{""page_index"":2,""viewing_time"":396},{""page_index"":3,""viewing_time"":495},{""page_index"":4,""viewing_time"":529},{""page_index"":5,""viewing_time"":717},{""page_index"":6,""viewing_time"":1259}]","","","","","","","","","","","","","","","","","","","","","","","","","","","","","","","","","","","","","","","","",""
"","deliberation_comprehension_check","","survey-multi-choice","54","38930","0.0-3.0-0.0-1.0","11","17399","11","12495","{""Q0"":""True"",""Q1"":""True"",""Q2"":""Wait until an arrow comes up and then select the image the arrow is pointing at"",""Q3"":""Consider carefully and take your time (up to 3 seconds)"",""Q4"":""D""}","","0","","","","","","","","","","","","","","","","","","","","","","","","","","","","","","","","","","","","","","","",""
"","","","html-keyboard-response","55","39835","0.0-3.0-1.0","11","17399","11","903","","","","68","","","","","","","","","","","","","","","","","","","","","","","","","","","","","","","","","","","","","","",""
"","deliberation","","html-keyboard-response","56","40145","0.0-3.0-2.0-0.0","11","17399","11","306","","","","68","","0","","","39835","1","","","","","","","Stimuli/Practice_stims/Deliberation/anthony-delanoix-Q0-fOL2nqZc-unsplash.jpg","Stimuli/Practice_stims/Deliberation/becca-tapert-sY5RjMB1KkE-unsplash.jpg","0","prac1","1","0","","original","1500","0","0","","","","","Stimuli/Practice_stims/Deliberation/anthony-delanoix-Q0-fOL2nqZc-unsplash.jpg","Stimuli/Practice_stims/Deliberation/becca-tapert-sY5RjMB1KkE-unsplash.jpg","","","306","0","310","0","","","",""
"","deliberation_confirmation","","html-keyboard-response","57","40850","0.0-3.0-2.0-2.0-0.0","11","17399","11","null","","","","null","","0","","","40145","","","","","","","","","","","","","","","","","0","","","","","","","","","","694","306","705","310","694","","",""
"","iti","","html-keyboard-response","58","40963","0.0-3.0-2.0-4.0","11","17399","11","null","","","","null","","0","","","40850","","","","","","","","","","","","","","","","","0","","","","","","","","","","100","1000","113","1015","100","","",""
"","deliberation","","html-keyboard-response","59","43474","0.0-3.0-4.0-0.0","11","17399","11","95","","","","68","","1","","","40963","","","","","","","","","","0","prac2","1","2500","left","scramble","2500","0","0","","","","","Stimuli/Practice_stims/Deliberation/scramble/scrambled_clay-banks-1KPfcPdbWFM-unsplash.jpg","Stimuli/Practice_stims/Deliberation/scramble/scrambled_melissa-keizer-sV4Pd8wq5_o-unsplash.jpg","","","2500","1100","2511","1128","","","",""
"","scramble_prompt","","html-keyboard-response","60","43479","0.0-3.0-4.0-1.0-0.0","11","17399","11","null","","","","null","","1","","","43474","NaN","NaN","NaN","NaN","NaN","","","NaN","NaN","","","","","","","","0","","","","","","","","","","-1500","3600","5","3639","-1500","0","1",""
"","deliberation_no_response","","html-keyboard-response","61","43584","0.0-3.0-4.0-3.0-0.0","11","17399","11","null","","","","null","","1","","","43479","","","","","","","","","","1","","","","","","","0","","","","","","","","","","100","2100","105","3644","","","","1"
"","iti","","html-keyboard-response","62","43696","0.0-3.0-4.0-4.0","11","17399","11","null","","","","null","","1","","","43584","","","","","","","","","","","","","","","","","0","","","","","","","","","","100","2200","112","3749","100","","",""
"","deliberation","","html-keyboard-response","63","45209","0.0-3.0-6.0-0.0","11","17399","11","313","","","","68","","2","","","43696","","","","","","","","","","0","prac3","1","1500","right","scramble","3000","0","0","","","","","Stimuli/Practice_stims/Deliberation/scramble/scrambled_anthony-delanoix-Q0-fOL2nqZc-unsplash.jpg","Stimuli/Practice_stims/Deliberation/scramble/scrambled_becca-tapert-sY5RjMB1KkE-unsplash.jpg","","","1500","2300","1513","3861","","","",""
"","scramble_prompt","","html-keyboard-response","64","45216","0.0-3.0-6.0-1.0-0.0","11","17399","11","null","","","","null","","2","","","45209","NaN","NaN","NaN","NaN","NaN","","","NaN","NaN","","","","","","","","0","","","","","","","","","","-500","3800","7","5374","-500","0","1",""
"","deliberation_no_response","","html-keyboard-response","65","45320","0.0-3.0-6.0-3.0-0.0","11","17399","11","null","","","","null","","2","","","45216","","","","","","","","","","1","","","","","","","0","","","","","","","","","","100","3300","104","5381","","","","1"
"","iti","","html-keyboard-response","66","45430","0.0-3.0-6.0-4.0","11","17399","11","null","","","","null","","2","","","45320","","","","","","","","","","","","","","","","","0","","","","","","","","","","100","3400","110","5485","100","","",""
"","deliberation","","html-keyboard-response","67","45541","0.0-3.0-8.0-0.0","11","17399","11","109","","","","68","","3","","","45430","1","","","","","","","Stimuli/Practice_stims/Deliberation/clay-banks-1KPfcPdbWFM-unsplash.jpg","Stimuli/Practice_stims/Deliberation/melissa-keizer-sV4Pd8wq5_o-unsplash.jpg","0","prac4","1","0","","original","2000","0","0","","","","","Stimuli/Practice_stims/Deliberation/clay-banks-1KPfcPdbWFM-unsplash.jpg","Stimuli/Practice_stims/Deliberation/melissa-keizer-sV4Pd8wq5_o-unsplash.jpg","","","109","3500","111","5595","","","",""
"","deliberation_confirmation","","html-keyboard-response","68","46442","0.0-3.0-8.0-2.0-0.0","11","17399","11","null","","","","null","","3","","","45541","","","","","","","","","","","","","","","","","0","","","","","","","","","","891","3609","901","5706","891","","",""
"","iti","","html-keyboard-response","69","46553","0.0-3.0-8.0-4.0","11","17399","11","null","","","","null","","3","","","46442","","","","","","","","","","","","","","","","","0","","","","","","","","","","100","4500","111","6607","100","","",""
"","practice_over","","html-keyboard-response","70","46664","0.0-3.0-8.0-5.0-0.0","11","17399","11","109","","","","68","","","","","","","","","","","","","","","","","","","","","","","","","","","","","","","","","","","","","","",""
"","start_run","","html-keyboard-response","71","50444","0.0-3.0-8.0-5.0-1.0","11","17399","11","3777","","","","84","","","","","","","","","","","","","","","","","","","","","","","","","","","","","","","","","","","","","","",""
"","deliberation","","html-keyboard-response","72","51753","0.0-3.0-10.0-0.0","11","17399","11","1096","","","","68","","4","","","50444","","","","","","","","","","0","D","0","1300","right","scramble","3300","1","1","42","21","objects","faces","Stimuli/Experimental_stims/scramble/objects/scrambled_jess-bailey-nOeVi8DsN8U-unsplash.jpg","Stimuli/Experimental_stims/scramble/faces/scrambled_leilani-angel-K84vnnzxmTQ-unsplash.jpg","NaN","NaN","1300","0","1309","0","","","",""
"","scramble_prompt","","html-keyboard-response","73","51758","0.0-3.0-10.0-1.0-0.0","11","17399","11","null","","","","null","","4","","","51753","NaN","NaN","NaN","NaN","NaN","","","NaN","NaN","","","","","","","","1","","","","","","","","","","-300","1300","5","1309","-300","0","1",""
"","deliberation_no_response","","html-keyboard-response","74","51864","0.0-3.0-10.0-3.0-0.0","11","17399","11","null","","","","null","","4","","","51758","","","","","","","","","","1","","","","","","","1","","","","","","","","","","100","1000","106","1314","","","","1"
"","iti","","html-keyboard-response","75","51980","0.0-3.0-10.0-4.0","11","17399","11","null","","","","null","","4","","","51864","","","","","","","","","","","","","","","","","1","","","","","","","","","","100","1100","116","1420","100","","",""
"","deliberation","","html-keyboard-response","76","53488","0.0-3.0-12.0-0.0","11","17399","11","282","","","","68","","5","","","51980","","","","","","","","","","0","B","0","1500","right","scramble","1100","1","1","8","22","outdoor_scenes","faces","Stimuli/Experimental_stims/scramble/outdoor_scenes/scrambled_samsommer-vddccTqwal8-unsplash.jpg","Stimuli/Experimental_stims/scramble/faces/scrambled_ravi-patel-VMGAbeeJTKo-unsplash.jpg","NaN","NaN","1500","1200","1508","1536","","","",""
"","scramble_prompt","","html-keyboard-response","77","53496","0.0-3.0-12.0-1.0-0.0","11","17399","11","null","","","","null","","5","","","53488","NaN","NaN","NaN","NaN","NaN","","","NaN","NaN","","","","","","","","1","","","","","","","","","","-500","2700","8","3044","-500","0","1",""
"","deliberation_no_response","","html-keyboard-response","78","53599","0.0-3.0-12.0-3.0-0.0","11","17399","11","null","","","","null","","5","","","53496","","","","","","","","","","1","","","","","","","1","","","","","","","","","","100","2200","103","3052","","","","1"
"","iti","","html-keyboard-response","79","53704","0.0-3.0-12.0-4.0","11","17399","11","null","","","","null","","5","","","53599","","","","","","","","","","","","","","","","","1","","","","","","","","","","100","2300","105","3155","100","","",""
"","deliberation","","html-keyboard-response","80","54278","0.0-3.0-14.0-0.0","11","17399","11","569","","","","68","","6","","","53704","1","1","37","outdoor_scenes","objects","50","50","Stimuli/Experimental_stims/outdoor_scenes/ashim-d-silva-S2Q5mdOrrVc-unsplash.jpg","Stimuli/Experimental_stims/objects/alexander-andrews-VLGWE_SumrA-unsplash.jpg","0","A","0","0","","original","1800","1","1","1","37","outdoor_scenes","objects","Stimuli/Experimental_stims/outdoor_scenes/ashim-d-silva-S2Q5mdOrrVc-unsplash.jpg","Stimuli/Experimental_stims/objects/alexander-andrews-VLGWE_SumrA-unsplash.jpg","50","50","569","2400","574","3260","","","",""
"","deliberation_confirmation","","html-keyboard-response","81","54724","0.0-3.0-14.0-2.0-0.0","11","17399","11","null","","","","null","","6","","","54278","","","","","","","","","","","","","","","","","1","","","","","","","","","","431","2969","446","3834","431","","",""
"","iti","","html-keyboard-response","82","54832","0.0-3.0-14.0-4.0","11","17399","11","null","","","","null","","6","","","54724","","","","","","","","","","","","","","","","","1","","","","","","","","","","100","3400","108","4280","100","","",""
"","deliberation","","html-keyboard-response","83","55842","0.0-3.0-16.0-0.0","11","17399","11","null","","","","null","","7","","","54832","NaN","NaN","NaN","NaN","NaN","NaN","NaN","NaN","NaN","1","E","0","0","","original","1500","1","1","41","24","objects","body_parts","Stimuli/Experimental_stims/objects/insung-yoon-w2JtIQQXoRU-unsplash.jpg","Stimuli/Experimental_stims/body_parts/clay-banks-LjqARJaJotc-unsplash.jpg","50","50","1000","3500","1010","4388","","","",""
"","deliberation_no_response","","html-keyboard-response","84","55956","0.0-3.0-16.0-3.0-0.0","11","17399","11","null","","","","null","","7","","","55842","","","","","","","","","","1","","","","","","","1","","","","","","","","","","100","4500","114","5398","","","","1"
"","iti","","html-keyboard-response","85","56069","0.0-3.0-16.0-4.0","11","17399","11","null","","","","null","","7","","","55956","","","","","","","","","","","","","","","","","1","","","","","","","","","","100","4600","113","5512","100","","",""
"","deliberation","","html-keyboard-response","86","57872","0.0-3.0-18.0-0.0","11","17399","11","1217","","","","68","","8","","","56069","","","","","","","","","","0","K","0","1800","left","scramble","2200","1","1","26","43","body_parts","objects","Stimuli/Experimental_stims/scramble/body_parts/scrambled_engin-akyurt-x_3gyC42btc-unsplash.jpg","Stimuli/Experimental_stims/scramble/objects/scrambled_jonathan-greenaway-Y4hGgeiFn3s-unsplash.jpg","NaN","NaN","1800","4700","1803","5625","","","",""
"","scramble_prompt","","html-keyboard-response","87","57880","0.0-3.0-18.0-1.0-0.0","11","17399","11","null","","","","null","","8","","","57872","NaN","NaN","NaN","NaN","NaN","","","NaN","NaN","","","","","","","","1","","","","","","","","","","-800","6500","8","7428","-800","0","1",""
"","deliberation_no_response","","html-keyboard-response","88","57995","0.0-3.0-18.0-3.0-0.0","11","17399","11","null","","","","null","","8","","","57880","","","","","","","","","","1","","","","","","","1","","","","","","","","","","100","5700","115","7436","","","","1"
"","iti","","html-keyboard-response","89","58106","0.0-3.0-18.0-4.0","11","17399","11","null","","","","null","","8","","","57995","","","","","","","","","","","","","","","","","1","","","","","","","","","","100","5800","111","7551","100","","",""
"","deliberation","","html-keyboard-response","90","59117","0.0-3.0-20.0-0.0","11","17399","11","null","","","","null","","9","","","58106","NaN","NaN","NaN","NaN","NaN","NaN","NaN","NaN","NaN","1","J","0","0","","original","2400","1","1","15","36","faces","objects","Stimuli/Experimental_stims/faces/erik-lucatero-d2MSDujJl2g-unsplash.jpg","Stimuli/Experimental_stims/objects/alexander-andrews-JYGnB9gTCls-unsplash.jpg","50","50","1000","5900","1011","7662","","","",""
"","deliberation_no_response","","html-keyboard-response","91","59224","0.0-3.0-20.0-3.0-0.0","11","17399","11","null","","","","null","","9","","","59117","","","","","","","","","","1","","","","","","","1","","","","","","","","","","100","6900","107","8673","","","","1"
"","iti","","html-keyboard-response","92","59338","0.0-3.0-20.0-4.0","11","17399","11","null","","","","null","","9","","","59224","","","","","","","","","","","","","","","","","1","","","","","","","","","","100","7000","114","8780","100","","",""
"","deliberation","","html-keyboard-response","93","60047","0.0-3.0-22.0-0.0","11","17399","11","534","","","","68","","10","","","59338","","","","","","","","","","0","L","0","700","left","scramble","3000","1","1","33","23","body_parts","faces","Stimuli/Experimental_stims/scramble/body_parts/scrambled_tucker-good-36skLT5jZcc-unsplash.jpg","Stimuli/Experimental_stims/scramble/faces/scrambled_rikonavt-HQjfrvdTfak-unsplash.jpg","NaN","NaN","700","7100","709","8894","","","",""
"","scramble_prompt","","html-keyboard-response","94","60205","0.0-3.0-22.0-1.0-0.0","11","17399","11","156","","","","68","","10","","","60047","1","33","23","body_parts","faces","","","Stimuli/Experimental_stims/scramble/body_parts/scrambled_tucker-good-36skLT5jZcc-unsplash.jpg","Stimuli/Experimental_stims/scramble/faces/scrambled_rikonavt-HQjfrvdTfak-unsplash.jpg","0","","","","","","","1","","","","","","","","","","156","7800","158","9603","300","1","",""
"","deliberation_confirmation","","html-keyboard-response","95","60361","0.0-3.0-22.0-2.0-0.0","11","17399","11","null","","","","null","","10","","","60205","","","","","","","","","","","","","","","","","1","","","","","","","","","","144","7956","156","9761","144","","",""
"","iti","","html-keyboard-response","96","60473","0.0-3.0-22.0-4.0","11","17399","11","null","","","","null","","10","","","60361","","","","","","","","","","","","","","","","","1","","","","","","","","","","100","8100","112","9917","100","","",""
"","deliberation","","html-keyboard-response","97","60653","0.0-3.0-24.0-0.0","11","17399","11","176","","","","68","","11","","","60473","1","2","27","outdoor_scenes","body_parts","50","50","Stimuli/Experimental_stims/outdoor_scenes/bruno-van-der-kraan-qez8mNJ3ilU-unsplash.jpg","Stimuli/Experimental_stims/body_parts/heike-mintel-i_Gns0ELnLw-unsplash.jpg","0","C","0","0","","original","1100","1","1","2","27","outdoor_scenes","body_parts","Stimuli/Experimental_stims/outdoor_scenes/bruno-van-der-kraan-qez8mNJ3ilU-unsplash.jpg","Stimuli/Experimental_stims/body_parts/heike-mintel-i_Gns0ELnLw-unsplash.jpg","50","50","176","8200","180","10029","","","",""
"","deliberation_confirmation","","html-keyboard-response","98","61488","0.0-3.0-24.0-2.0-0.0","11","17399","11","null","","","","null","","11","","","60653","","","","","","","","","","","","","","","","","1","","","","","","","","","","824","8376","835","10209","824","","",""
"","iti","","html-keyboard-response","99","61598","0.0-3.0-24.0-4.0","11","17399","11","null","","","","null","","11","","","61488","","","","","","","","","","","","","","","","","1","","","","","","","","","","100","9200","110","11044","100","","",""
"","deliberation","","html-keyboard-response","100","61847","0.0-3.0-26.0-0.0","11","17399","11","246","","","","68","","12","","","61598","1","14","35","faces","body_parts","50","50","Stimuli/Experimental_stims/faces/david-siglin-UuW4psOb388-unsplash.jpg","Stimuli/Experimental_stims/body_parts/wc-so-KH4AAPjb-tI-unsplash.jpg","0","F","0","0","","original","2300","1","1","14","35","faces","body_parts","Stimuli/Experimental_stims/faces/david-siglin-UuW4psOb388-unsplash.jpg","Stimuli/Experimental_stims/body_parts/wc-so-KH4AAPjb-tI-unsplash.jpg","50","50","246","9300","249","11154","","","",""
"","deliberation_confirmation","","html-keyboard-response","101","62612","0.0-3.0-26.0-2.0-0.0","11","17399","11","null","","","","null","","12","","","61847","","","","","","","","","","","","","","","","","1","","","","","","","","","","754","9546","765","11403","754","","",""
"","iti","","html-keyboard-response","102","62724","0.0-3.0-26.0-4.0","11","17399","11","null","","","","null","","12","","","62612","","","","","","","","","","","","","","","","","1","","","","","","","","","","100","10300","112","12168","100","","",""
"","deliberation","","html-keyboard-response","103","64336","0.0-3.0-28.0-0.0","11","17399","11","259","","","","68","","13","","","62724","","","","","","","","","","0","I","0","1600","left","scramble","1400","1","1","28","5","body_parts","outdoor_scenes","Stimuli/Experimental_stims/scramble/body_parts/scrambled_ira-vishnevskaya-8DQAvdCby1I-unsplash.jpg","Stimuli/Experimental_stims/scramble/outdoor_scenes/scrambled_jeff-king-bJHWJeiHfHc-unsplash.jpg","NaN","NaN","1600","10400","1612","12280","","","",""
"","scramble_prompt","","html-keyboard-response","104","64339","0.0-3.0-28.0-1.0-0.0","11","17399","11","null","","","","null","","13","","","64336","NaN","NaN","NaN","NaN","NaN","","","NaN","NaN","","","","","","","","1","","","","","","","","","","-600","12000","3","13892","-600","0","1",""
"","deliberation_no_response","","html-keyboard-response","105","64447","0.0-3.0-28.0-3.0-0.0","11","17399","11","null","","","","null","","13","","","64339","","","","","","","","","","1","","","","","","","1","","","","","","","","","","100","11400","108","13895","","","","1"
"","iti","","html-keyboard-response","106","64550","0.0-3.0-28.0-4.0","11","17399","11","null","","","","null","","13","","","64447","","","","","","","","","","","","","","","","","1","","","","","","","","","","100","11500","103","14003","100","","",""
"","deliberation","","html-keyboard-response","107","64753","0.0-3.0-30.0-0.0","11","17399","11","201","","","","68","","14","","","64550","1","12","4","faces","outdoor_scenes","50","50","Stimuli/Experimental_stims/faces/aiony-haust-jmATI5Q_YgY-unsplash.jpg","Stimuli/Experimental_stims/outdoor_scenes/jarrett-kow-1ZOyYPOBn7I-unsplash.jpg","0","H","0","0","","original","2600","1","1","12","4","faces","outdoor_scenes","Stimuli/Experimental_stims/faces/aiony-haust-jmATI5Q_YgY-unsplash.jpg","Stimuli/Experimental_stims/outdoor_scenes/jarrett-kow-1ZOyYPOBn7I-unsplash.jpg","50","50","201","11600","203","14106","","","",""
"","deliberation_confirmation","","html-keyboard-response","108","65560","0.0-3.0-30.0-2.0-0.0","11","17399","11","null","","","","null","","14","","","64753","","","","","","","","","","","","","","","","","1","","","","","","","","","","799","11801","807","14309","799","","",""
"","iti","","html-keyboard-response","109","65671","0.0-3.0-30.0-4.0","11","17399","11","null","","","","null","","14","","","65560","","","","","","","","","","","","","","","","","1","","","","","","","","","","100","12600","111","15116","100","","",""
"","deliberation","","html-keyboard-response","110","67188","0.0-3.0-32.0-0.0","11","17399","11","606","","","","68","","15","","","65671","","","","","","","","","","0","C","0","1500","right","scramble","4300","1","1","2","27","outdoor_scenes","body_parts","Stimuli/Experimental_stims/scramble/outdoor_scenes/scrambled_bruno-van-der-kraan-qez8mNJ3ilU-unsplash.jpg","Stimuli/Experimental_stims/scramble/body_parts/scrambled_heike-mintel-i_Gns0ELnLw-unsplash.jpg","NaN","NaN","1500","12700","1517","15227","","","",""
"","scramble_prompt","","html-keyboard-response","111","67194","0.0-3.0-32.0-1.0-0.0","11","17399","11","null","","","","null","","15","","","67188","NaN","NaN","NaN","NaN","NaN","","","NaN","NaN","","","","","","","","1","","","","","","","","","","-500","14200","6","16744","-500","0","1",""
"","deliberation_no_response","","html-keyboard-response","112","67305","0.0-3.0-32.0-3.0-0.0","11","17399","11","null","","","","null","","15","","","67194","","","","","","","","","","1","","","","","","","1","","","","","","","","","","100","13700","111","16750","","","","1"
"","iti","","html-keyboard-response","113","67420","0.0-3.0-32.0-4.0","11","17399","11","null","","","","null","","15","","","67305","","","","","","","","","","","","","","","","","1","","","","","","","","","","100","13800","115","16861","100","","",""
"","deliberation","","html-keyboard-response","114","67603","0.0-3.0-34.0-0.0","11","17399","11","179","","","","68","","16","","","67420","1","26","43","body_parts","objects","50","50","Stimuli/Experimental_stims/body_parts/engin-akyurt-x_3gyC42btc-unsplash.jpg","Stimuli/Experimental_stims/objects/jonathan-greenaway-Y4hGgeiFn3s-unsplash.jpg","0","K","0","0","","original","1900","1","1","26","43","body_parts","objects","Stimuli/Experimental_stims/body_parts/engin-akyurt-x_3gyC42btc-unsplash.jpg","Stimuli/Experimental_stims/objects/jonathan-greenaway-Y4hGgeiFn3s-unsplash.jpg","50","50","179","13900","183","16976","","","",""
"","deliberation_confirmation","","html-keyboard-response","115","68432","0.0-3.0-34.0-2.0-0.0","11","17399","11","null","","","","null","","16","","","67603","","","","","","","","","","","","","","","","","1","","","","","","","","","","821","14079","829","17159","821","","",""
"","iti","","html-keyboard-response","116","68543","0.0-3.0-34.0-4.0","11","17399","11","null","","","","null","","16","","","68432","","","","","","","","","","","","","","","","","1","","","","","","","","","","100","14900","111","17988","100","","",""
"","deliberation","","html-keyboard-response","117","69849","0.0-3.0-36.0-0.0","11","17399","11","348","","","","68","","17","","","68543","","","","","","","","","","0","J","0","1300","right","scramble","1100","1","1","15","36","faces","objects","Stimuli/Experimental_stims/scramble/faces/scrambled_erik-lucatero-d2MSDujJl2g-unsplash.jpg","Stimuli/Experimental_stims/scramble/objects/scrambled_alexander-andrews-JYGnB9gTCls-unsplash.jpg","NaN","NaN","1300","15000","1306","18099","","","",""
"","scramble_prompt","","html-keyboard-response","118","69854","0.0-3.0-36.0-1.0-0.0","11","17399","11","null","","","","null","","17","","","69849","NaN","NaN","NaN","NaN","NaN","","","NaN","NaN","","","","","","","","1","","","","","","","","","","-300","16300","5","19405","-300","0","1",""
"","deliberation_no_response","","html-keyboard-response","119","69962","0.0-3.0-36.0-3.0-0.0","11","17399","11","null","","","","null","","17","","","69854","","","","","","","","","","1","","","","","","","1","","","","","","","","","","100","16000","108","19410","","","","1"
"","iti","","html-keyboard-response","120","70076","0.0-3.0-36.0-4.0","11","17399","11","null","","","","null","","17","","","69962","","","","","","","","","","","","","","","","","1","","","","","","","","","","100","16100","114","19518","100","","",""
"","deliberation","","html-keyboard-response","121","70237","0.0-3.0-38.0-0.0","11","17399","11","158","","","","68","","18","","","70076","1","46","10","objects","outdoor_scenes","50","50","Stimuli/Experimental_stims/objects/mockup-graphics-PNsj6RiHAF4-unsplash.jpg","Stimuli/Experimental_stims/outdoor_scenes/shannon-kunkle-dM8INmkyDas-unsplash.jpg","0","G","0","0","","original","1500","1","1","46","10","objects","outdoor_scenes","Stimuli/Experimental_stims/objects/mockup-graphics-PNsj6RiHAF4-unsplash.jpg","Stimuli/Experimental_stims/outdoor_scenes/shannon-kunkle-dM8INmkyDas-unsplash.jpg","50","50","158","16200","161","19632","","","",""
"","deliberation_confirmation","","html-keyboard-response","122","71090","0.0-3.0-38.0-2.0-0.0","11","17399","11","null","","","","null","","18","","","70237","","","","","","","","","","","","","","","","","1","","","","","","","","","","842","16358","853","19793","842","","",""
"","iti","","html-keyboard-response","123","71205","0.0-3.0-38.0-4.0","11","17399","11","null","","","","null","","18","","","71090","","","","","","","","","","","","","","","","","1","","","","","","","","","","100","17200","115","20646","100","","",""
"","deliberation","","html-keyboard-response","124","73216","0.0-3.0-40.0-0.0","11","17399","11","191","","","","68","","19","","","71205","","","","","","","","","","0","H","0","2000","right","scramble","1300","1","1","12","4","faces","outdoor_scenes","Stimuli/Experimental_stims/scramble/faces/scrambled_aiony-haust-jmATI5Q_YgY-unsplash.jpg","Stimuli/Experimental_stims/scramble/outdoor_scenes/scrambled_jarrett-kow-1ZOyYPOBn7I-unsplash.jpg","NaN","NaN","2000","17300","2011","20761","","","",""
"","scramble_prompt","","html-keyboard-response","125","73221","0.0-3.0-40.0-1.0-0.0","11","17399","11","null","","","","null","","19","","","73216","NaN","NaN","NaN","NaN","NaN","","","NaN","NaN","","","","","","","","1","","","","","","","","","","-1000","19300","5","22772","-1000","0","1",""
"","deliberation_no_response","","html-keyboard-response","126","73328","0.0-3.0-40.0-3.0-0.0","11","17399","11","null","","","","null","","19","","","73221","","","","","","","","","","1","","","","","","","1","","","","","","","","","","100","18300","107","22777","","","","1"
"","iti","","html-keyboard-response","127","73442","0.0-3.0-40.0-4.0","11","17399","11","null","","","","null","","19","","","73328","","","","","","","","","","","","","","","","","1","","","","","","","","","","100","18400","114","22884","100","","",""
"","deliberation","","html-keyboard-response","128","75353","0.0-3.0-42.0-0.0","11","17399","11","73","","","","68","","20","","","73442","","","","","","","","","","0","A","0","1900","left","scramble","3500","1","1","1","37","outdoor_scenes","objects","Stimuli/Experimental_stims/scramble/outdoor_scenes/scrambled_ashim-d-silva-S2Q5mdOrrVc-unsplash.jpg","Stimuli/Experimental_stims/scramble/objects/scrambled_alexander-andrews-VLGWE_SumrA-unsplash.jpg","NaN","NaN","1900","18500","1911","22998","","","",""
"","scramble_prompt","","html-keyboard-response","129","75362","0.0-3.0-42.0-1.0-0.0","11","17399","11","null","","","","null","","20","","","75353","NaN","NaN","NaN","NaN","NaN","","","NaN","NaN","","","","","","","","1","","","","","","","","","","-900","20400","9","24909","-900","0","1",""
"","deliberation_no_response","","html-keyboard-response","130","75469","0.0-3.0-42.0-3.0-0.0","11","17399","11","null","","","","null","","20","","","75362","","","","","","","","","","1","","","","","","","1","","","","","","","","","","100","19500","107","24918","","","","1"
"","iti","","html-keyboard-response","131","75576","0.0-3.0-42.0-4.0","11","17399","11","null","","","","null","","20","","","75469","","","","","","","","","","","","","","","","","1","","","","","","","","","","100","19600","107","25025","100","","",""
"","deliberation","","html-keyboard-response","132","75719","0.0-3.0-44.0-0.0","11","17399","11","140","","","","68","","21","","","75576","1","33","23","body_parts","faces","50","50","Stimuli/Experimental_stims/body_parts/tucker-good-36skLT5jZcc-unsplash.jpg","Stimuli/Experimental_stims/faces/rikonavt-HQjfrvdTfak-unsplash.jpg","0","L","0","0","","original","1400","1","1","33","23","body_parts","faces","Stimuli/Experimental_stims/body_parts/tucker-good-36skLT5jZcc-unsplash.jpg","Stimuli/Experimental_stims/faces/rikonavt-HQjfrvdTfak-unsplash.jpg","50","50","140","19700","143","25132","","","",""
"","deliberation_confirmation","","html-keyboard-response","133","76592","0.0-3.0-44.0-2.0-0.0","11","17399","11","null","","","","null","","21","","","75719","","","","","","","","","","","","","","","","","1","","","","","","","","","","860","19840","873","25275","860","","",""
"","iti","","html-keyboard-response","134","76706","0.0-3.0-44.0-4.0","11","17399","11","null","","","","null","","21","","","76592","","","","","","","","","","","","","","","","","1","","","","","","","","","","100","20700","114","26148","100","","",""
"","deliberation","","html-keyboard-response","135","76862","0.0-3.0-46.0-0.0","11","17399","11","152","","","","68","","22","","","76706","1","28","5","body_parts","outdoor_scenes","50","50","Stimuli/Experimental_stims/body_parts/ira-vishnevskaya-8DQAvdCby1I-unsplash.jpg","Stimuli/Experimental_stims/outdoor_scenes/jeff-king-bJHWJeiHfHc-unsplash.jpg","0","I","0","0","","original","1300","1","1","28","5","body_parts","outdoor_scenes","Stimuli/Experimental_stims/body_parts/ira-vishnevskaya-8DQAvdCby1I-unsplash.jpg","Stimuli/Experimental_stims/outdoor_scenes/jeff-king-bJHWJeiHfHc-unsplash.jpg","50","50","152","20800","156","26262","","","",""
"","deliberation_confirmation","","html-keyboard-response","136","77722","0.0-3.0-46.0-2.0-0.0","11","17399","11","null","","","","null","","22","","","76862","","","","","","","","","","","","","","","","","1","","","","","","","","","","848","20952","860","26418","848","","",""
"","iti","","html-keyboard-response","137","77836","0.0-3.0-46.0-4.0","11","17399","11","null","","","","null","","22","","","77722","","","","","","","","","","","","","","","","","1","","","","","","","","","","100","21800","114","27278","100","","",""
"","deliberation","","html-keyboard-response","138","78848","0.0-3.0-48.0-0.0","11","17399","11","195","","","","68","","23","","","77836","","","","","","","","","","0","G","0","1000","left","scramble","1100","1","1","46","10","objects","outdoor_scenes","Stimuli/Experimental_stims/scramble/objects/scrambled_mockup-graphics-PNsj6RiHAF4-unsplash.jpg","Stimuli/Experimental_stims/scramble/outdoor_scenes/scrambled_shannon-kunkle-dM8INmkyDas-unsplash.jpg","NaN","NaN","1000","21900","1012","27392","","","",""
"","scramble_prompt","","html-keyboard-response","139","78852","0.0-3.0-48.0-1.0-0.0","11","17399","11","null","","","","null","","23","","","78848","NaN","NaN","NaN","NaN","NaN","","","NaN","NaN","","","","","","","","1","","","","","","","","","","0","22900","4","28404","0","0","1",""
"","deliberation_no_response","","html-keyboard-response","140","78961","0.0-3.0-48.0-3.0-0.0","11","17399","11","null","","","","null","","23","","","78852","","","","","","","","","","1","","","","","","","1","","","","","","","","","","100","22900","109","28408","","","","1"
"","iti","","html-keyboard-response","141","79075","0.0-3.0-48.0-4.0","11","17399","11","null","","","","null","","23","","","78961","","","","","","","","","","","","","","","","","1","","","","","","","","","","100","23000","114","28517","100","","",""
"","deliberation","","html-keyboard-response","142","79218","0.0-3.0-50.0-0.0","11","17399","11","139","","","","68","","24","","","79075","1","8","22","outdoor_scenes","faces","50","50","Stimuli/Experimental_stims/outdoor_scenes/samsommer-vddccTqwal8-unsplash.jpg","Stimuli/Experimental_stims/faces/ravi-patel-VMGAbeeJTKo-unsplash.jpg","0","B","0","0","","original","1200","1","1","8","22","outdoor_scenes","faces","Stimuli/Experimental_stims/outdoor_scenes/samsommer-vddccTqwal8-unsplash.jpg","Stimuli/Experimental_stims/faces/ravi-patel-VMGAbeeJTKo-unsplash.jpg","50","50","139","23100","143","28631","","","",""
"","deliberation_confirmation","","html-keyboard-response","143","80092","0.0-3.0-50.0-2.0-0.0","11","17399","11","null","","","","null","","24","","","79218","","","","","","","","","","","","","","","","","1","","","","","","","","","","861","23239","874","28774","861","","",""
"","iti","","html-keyboard-response","144","80202","0.0-3.0-50.0-4.0","11","17399","11","null","","","","null","","24","","","80092","","","","","","","","","","","","","","","","","1","","","","","","","","","","100","24100","110","29648","100","","",""
"","deliberation","","html-keyboard-response","145","81515","0.0-3.0-52.0-0.0","11","17399","11","61","","","","68","","25","","","80202","","","","","","","","","","0","E","0","1300","right","scramble","1100","1","1","41","24","objects","body_parts","Stimuli/Experimental_stims/scramble/objects/scrambled_insung-yoon-w2JtIQQXoRU-unsplash.jpg","Stimuli/Experimental_stims/scramble/body_parts/scrambled_clay-banks-LjqARJaJotc-unsplash.jpg","NaN","NaN","1300","24200","1313","29758","","","",""
"","scramble_prompt","","html-keyboard-response","146","81519","0.0-3.0-52.0-1.0-0.0","11","17399","11","null","","","","null","","25","","","81515","NaN","NaN","NaN","NaN","NaN","","","NaN","NaN","","","","","","","","1","","","","","","","","","","-300","25500","4","31071","-300","0","1",""
"","deliberation_no_response","","html-keyboard-response","147","81624","0.0-3.0-52.0-3.0-0.0","11","17399","11","null","","","","null","","25","","","81519","","","","","","","","","","1","","","","","","","1","","","","","","","","","","100","25200","105","31075","","","","1"
"","iti","","html-keyboard-response","148","81737","0.0-3.0-52.0-4.0","11","17399","11","null","","","","null","","25","","","81624","","","","","","","","","","","","","","","","","1","","","","","","","","","","100","25300","113","31180","100","","",""
"","deliberation","","html-keyboard-response","149","82013","0.0-3.0-54.0-0.0","11","17399","11","273","","","","68","","26","","","81737","1","42","21","objects","faces","50","50","Stimuli/Experimental_stims/objects/jess-bailey-nOeVi8DsN8U-unsplash.jpg","Stimuli/Experimental_stims/faces/leilani-angel-K84vnnzxmTQ-unsplash.jpg","0","D","0","0","","original","1700","1","1","42","21","objects","faces","Stimuli/Experimental_stims/objects/jess-bailey-nOeVi8DsN8U-unsplash.jpg","Stimuli/Experimental_stims/faces/leilani-angel-K84vnnzxmTQ-unsplash.jpg","50","50","273","25400","276","31293","","","",""
"","deliberation_confirmation","","html-keyboard-response","150","82755","0.0-3.0-54.0-2.0-0.0","11","17399","11","null","","","","null","","26","","","82013","","","","","","","","","","","","","","","","","1","","","","","","","","","","727","25673","742","31569","727","","",""
"","iti","","html-keyboard-response","151","82865","0.0-3.0-54.0-4.0","11","17399","11","null","","","","null","","26","","","82755","","","","","","","","","","","","","","","","","1","","","","","","","","","","100","26400","110","32311","100","","",""
"","deliberation","","html-keyboard-response","152","83979","0.0-3.0-56.0-0.0","11","17399","11","157","","","","68","","27","","","82865","","","","","","","","","","0","F","0","1100","left","scramble","2200","1","1","14","35","faces","body_parts","Stimuli/Experimental_stims/scramble/faces/scrambled_david-siglin-UuW4psOb388-unsplash.jpg","Stimuli/Experimental_stims/scramble/body_parts/scrambled_wc-so-KH4AAPjb-tI-unsplash.jpg","NaN","NaN","1100","26500","1114","32421","","","",""
"","scramble_prompt","","html-keyboard-response","153","83983","0.0-3.0-56.0-1.0-0.0","11","17399","11","null","","","","null","","27","","","83979","NaN","NaN","NaN","NaN","NaN","","","NaN","NaN","","","","","","","","1","","","","","","","","","","-100","27600","4","33535","-100","0","1",""
"","deliberation_no_response","","html-keyboard-response","154","84092","0.0-3.0-56.0-3.0-0.0","11","17399","11","null","","","","null","","27","","","83983","","","","","","","","","","1","","","","","","","1","","","","","","","","","","100","27500","109","33539","","","","1"
"","iti","","html-keyboard-response","155","84203","0.0-3.0-56.0-4.0","11","17399","11","null","","","","null","","27","","","84092","","","","","","","","","","","","","","","","","1","","","","","","","","","","100","27600","111","33648","100","","",""
"","deliberation","","html-keyboard-response","156","84404","0.0-3.0-58.0-0.0","11","17399","11","196","","","","68","","28","","","84203","1","26","43","body_parts","objects","50","50","Stimuli/Experimental_stims/body_parts/engin-akyurt-x_3gyC42btc-unsplash.jpg","Stimuli/Experimental_stims/objects/jonathan-greenaway-Y4hGgeiFn3s-unsplash.jpg","0","K","0","0","","original","3200","2","1","26","43","body_parts","objects","Stimuli/Experimental_stims/body_parts/engin-akyurt-x_3gyC42btc-unsplash.jpg","Stimuli/Experimental_stims/objects/jonathan-greenaway-Y4hGgeiFn3s-unsplash.jpg","50","50","196","27700","201","33759","","","",""
"","deliberation_confirmation","","html-keyboard-response","157","85219","0.0-3.0-58.0-2.0-0.0","11","17399","11","null","","","","null","","28","","","84404","","","","","","","","","","","","","","","","","2","","","","","","","","","","804","27896","815","33960","804","","",""
"","iti","","html-keyboard-response","158","85330","0.0-3.0-58.0-4.0","11","17399","11","null","","","","null","","28","","","85219","","","","","","","","","","","","","","","","","2","","","","","","","","","","100","28700","111","34775","100","","",""
"","deliberation","","html-keyboard-response","159","85350","0.0-3.0-60.0-0.0","11","17399","11","17","","","","68","","29","","","85330","1","28","5","body_parts","outdoor_scenes","50","50","Stimuli/Experimental_stims/body_parts/ira-vishnevskaya-8DQAvdCby1I-unsplash.jpg","Stimuli/Experimental_stims/outdoor_scenes/jeff-king-bJHWJeiHfHc-unsplash.jpg","0","I","0","0","","original","2900","2","1","28","5","body_parts","outdoor_scenes","Stimuli/Experimental_stims/body_parts/ira-vishnevskaya-8DQAvdCby1I-unsplash.jpg","Stimuli/Experimental_stims/outdoor_scenes/jeff-king-bJHWJeiHfHc-unsplash.jpg","50","50","17","28800","20","34886","","","",""
"","deliberation_confirmation","","html-keyboard-response","160","86343","0.0-3.0-60.0-2.0-0.0","11","17399","11","null","","","","null","","29","","","85350","","","","","","","","","","","","","","","","","2","","","","","","","","","","983","28817","993","34906","983","","",""
"","iti","","html-keyboard-response","161","86452","0.0-3.0-60.0-4.0","11","17399","11","null","","","","null","","29","","","86343","","","","","","","","","","","","","","","","","2","","","","","","","","","","100","29800","109","35899","100","","",""
"","deliberation","","html-keyboard-response","162","88067","0.0-3.0-62.0-0.0","11","17399","11","198","","","","68","","30","","","86452","","","","","","","","","","0","C","0","1600","right","scramble","1300","2","1","2","27","outdoor_scenes","body_parts","Stimuli/Experimental_stims/scramble/outdoor_scenes/scrambled_bruno-van-der-kraan-qez8mNJ3ilU-unsplash.jpg","Stimuli/Experimental_stims/scramble/body_parts/scrambled_heike-mintel-i_Gns0ELnLw-unsplash.jpg","NaN","NaN","1600","29900","1615","36008","","","",""
"","scramble_prompt","","html-keyboard-response","163","88072","0.0-3.0-62.0-1.0-0.0","11","17399","11","null","","","","null","","30","","","88067","NaN","NaN","NaN","NaN","NaN","","","NaN","NaN","","","","","","","","2","","","","","","","","","","-600","31500","5","37623","-600","0","1",""
"","deliberation_no_response","","html-keyboard-response","164","88174","0.0-3.0-62.0-3.0-0.0","11","17399","11","null","","","","null","","30","","","88072","","","","","","","","","","1","","","","","","","2","","","","","","","","","","100","30900","102","37628","","","","1"
"","iti","","html-keyboard-response","165","88282","0.0-3.0-62.0-4.0","11","17399","11","null","","","","null","","30","","","88174","","","","","","","","","","","","","","","","","2","","","","","","","","","","100","31000","108","37730","100","","",""
"","deliberation","","html-keyboard-response","166","88992","0.0-3.0-64.0-0.0","11","17399","11","168","","","","68","","31","","","88282","","","","","","","","","","0","H","0","700","left","scramble","1000","2","1","12","4","faces","outdoor_scenes","Stimuli/Experimental_stims/scramble/faces/scrambled_aiony-haust-jmATI5Q_YgY-unsplash.jpg","Stimuli/Experimental_stims/scramble/outdoor_scenes/scrambled_jarrett-kow-1ZOyYPOBn7I-unsplash.jpg","NaN","NaN","700","31100","710","37838","","","",""
"","scramble_prompt","","html-keyboard-response","167","89238","0.0-3.0-64.0-1.0-0.0","11","17399","11","242","","","","68","","31","","","88992","1","12","4","faces","outdoor_scenes","","","Stimuli/Experimental_stims/scramble/faces/scrambled_aiony-haust-jmATI5Q_YgY-unsplash.jpg","Stimuli/Experimental_stims/scramble/outdoor_scenes/scrambled_jarrett-kow-1ZOyYPOBn7I-unsplash.jpg","0","","","","","","","2","","","","","","","","","","242","31800","246","38548","300","1","",""
"","deliberation_confirmation","","html-keyboard-response","168","89307","0.0-3.0-64.0-2.0-0.0","11","17399","11","null","","","","null","","31","","","89238","","","","","","","","","","","","","","","","","2","","","","","","","","","","58","32042","69","38794","58","","",""
"","iti","","html-keyboard-response","169","89417","0.0-3.0-64.0-4.0","11","17399","11","null","","","","null","","31","","","89307","","","","","","","","","","","","","","","","","2","","","","","","","","","","100","32100","110","38863","100","","",""
"","deliberation","","html-keyboard-response","170","89593","0.0-3.0-66.0-0.0","11","17399","11","173","","","","68","","32","","","89417","1","41","24","objects","body_parts","50","50","Stimuli/Experimental_stims/objects/insung-yoon-w2JtIQQXoRU-unsplash.jpg","Stimuli/Experimental_stims/body_parts/clay-banks-LjqARJaJotc-unsplash.jpg","0","E","0","0","","original","1000","2","1","41","24","objects","body_parts","Stimuli/Experimental_stims/objects/insung-yoon-w2JtIQQXoRU-unsplash.jpg","Stimuli/Experimental_stims/body_parts/clay-banks-LjqARJaJotc-unsplash.jpg","50","50","173","32200","176","38973","","","",""
"","deliberation_confirmation","","html-keyboard-response","171","90429","0.0-3.0-66.0-2.0-0.0","11","17399","11","null","","","","null","","32","","","89593","","","","","","","","","","","","","","","","","2","","","","","","","","","","827","32373","836","39149","827","","",""
"","iti","","html-keyboard-response","172","90538","0.0-3.0-66.0-4.0","11","17399","11","null","","","","null","","32","","","90429","","","","","","","","","","","","","","","","","2","","","","","","","","","","100","33200","109","39985","100","","",""
"","deliberation","","html-keyboard-response","173","92347","0.0-3.0-68.0-0.0","11","17399","11","205","","","","68","","33","","","90538","","","","","","","","","","0","F","0","1800","right","scramble","1300","2","1","14","35","faces","body_parts","Stimuli/Experimental_stims/scramble/faces/scrambled_david-siglin-UuW4psOb388-unsplash.jpg","Stimuli/Experimental_stims/scramble/body_parts/scrambled_wc-so-KH4AAPjb-tI-unsplash.jpg","NaN","NaN","1800","33300","1809","40094","","","",""
"","scramble_prompt","","html-keyboard-response","174","92352","0.0-3.0-68.0-1.0-0.0","11","17399","11","null","","","","null","","33","","","92347","NaN","NaN","NaN","NaN","NaN","","","NaN","NaN","","","","","","","","2","","","","","","","","","","-800","35100","5","41903","-800","0","1",""
"","deliberation_no_response","","html-keyboard-response","175","92468","0.0-3.0-68.0-3.0-0.0","11","17399","11","null","","","","null","","33","","","92352","","","","","","","","","","1","","","","","","","2","","","","","","","","","","100","34300","116","41908","","","","1"
"","iti","","html-keyboard-response","176","92580","0.0-3.0-68.0-4.0","11","17399","11","null","","","","null","","33","","","92468","","","","","","","","","","","","","","","","","2","","","","","","","","","","100","34400","112","42024","100","","",""
"","deliberation","","html-keyboard-response","177","94492","0.0-3.0-70.0-0.0","11","17399","11","74","","","","68","","34","","","92580","","","","","","","","","","0","D","0","1900","left","scramble","2500","2","1","42","21","objects","faces","Stimuli/Experimental_stims/scramble/objects/scrambled_jess-bailey-nOeVi8DsN8U-unsplash.jpg","Stimuli/Experimental_stims/scramble/faces/scrambled_leilani-angel-K84vnnzxmTQ-unsplash.jpg","NaN","NaN","1900","34500","1912","42136","","","",""
"","scramble_prompt","","html-keyboard-response","178","94500","0.0-3.0-70.0-1.0-0.0","11","17399","11","null","","","","null","","34","","","94492","NaN","NaN","NaN","NaN","NaN","","","NaN","NaN","","","","","","","","2","","","","","","","","","","-900","36400","8","44048","-900","0","1",""
"","deliberation_no_response","","html-keyboard-response","179","94608","0.0-3.0-70.0-3.0-0.0","11","17399","11","null","","","","null","","34","","","94500","","","","","","","","","","1","","","","","","","2","","","","","","","","","","100","35500","108","44056","","","","1"
"","iti","","html-keyboard-response","180","94714","0.0-3.0-70.0-4.0","11","17399","11","null","","","","null","","34","","","94608","","","","","","","","","","","","","","","","","2","","","","","","","","","","100","35600","106","44164","100","","",""
"","deliberation","","html-keyboard-response","181","94778","0.0-3.0-72.0-0.0","11","17399","11","60","","","","68","","35","","","94714","1","2","27","outdoor_scenes","body_parts","50","50","Stimuli/Experimental_stims/outdoor_scenes/bruno-van-der-kraan-qez8mNJ3ilU-unsplash.jpg","Stimuli/Experimental_stims/body_parts/heike-mintel-i_Gns0ELnLw-unsplash.jpg","0","C","0","0","","original","1700","2","1","2","27","outdoor_scenes","body_parts","Stimuli/Experimental_stims/outdoor_scenes/bruno-van-der-kraan-qez8mNJ3ilU-unsplash.jpg","Stimuli/Experimental_stims/body_parts/heike-mintel-i_Gns0ELnLw-unsplash.jpg","50","50","60","35700","64","44270","","","",""
"","deliberation_confirmation","","html-keyboard-response","182","95732","0.0-3.0-72.0-2.0-0.0","11","17399","11","null","","","","null","","35","","","94778","","","","","","","","","","","","","","","","","2","","","","","","","","","","940","35760","954","44334","940","","",""
"","iti","","html-keyboard-response","183","95842","0.0-3.0-72.0-4.0","11","17399","11","null","","","","null","","35","","","95732","","","","","","","","","","","","","","","","","2","","","","","","","","","","100","36700","110","45288","100","","",""
"","deliberation","","html-keyboard-response","184","97553","0.0-3.0-74.0-0.0","11","17399","11","163","","","","68","","36","","","95842","","","","","","","","","","0","B","0","1700","right","scramble","3800","2","1","8","22","outdoor_scenes","faces","Stimuli/Experimental_stims/scramble/outdoor_scenes/scrambled_samsommer-vddccTqwal8-unsplash.jpg","Stimuli/Experimental_stims/scramble/faces/scrambled_ravi-patel-VMGAbeeJTKo-unsplash.jpg","NaN","NaN","1700","36800","1711","45398","","","",""
"","scramble_prompt","","html-keyboard-response","185","97557","0.0-3.0-74.0-1.0-0.0","11","17399","11","null","","","","null","","36","","","97553","NaN","NaN","NaN","NaN","NaN","","","NaN","NaN","","","","","","","","2","","","","","","","","","","-700","38500","4","47109","-700","0","1",""
"","deliberation_no_response","","html-keyboard-response","186","97664","0.0-3.0-74.0-3.0-0.0","11","17399","11","null","","","","null","","36","","","97557","","","","","","","","","","1","","","","","","","2","","","","","","","","","","100","37800","107","47113","","","","1"
"","iti","","html-keyboard-response","187","97767","0.0-3.0-74.0-4.0","11","17399","11","null","","","","null","","36","","","97664","","","","","","","","","","","","","","","","","2","","","","","","","","","","100","37900","103","47220","100","","",""
"","deliberation","","html-keyboard-response","188","97912","0.0-3.0-76.0-0.0","11","17399","11","142","","","","68","","37","","","97767","1","1","37","outdoor_scenes","objects","50","50","Stimuli/Experimental_stims/outdoor_scenes/ashim-d-silva-S2Q5mdOrrVc-unsplash.jpg","Stimuli/Experimental_stims/objects/alexander-andrews-VLGWE_SumrA-unsplash.jpg","0","A","0","0","","original","2400","2","1","1","37","outdoor_scenes","objects","Stimuli/Experimental_stims/outdoor_scenes/ashim-d-silva-S2Q5mdOrrVc-unsplash.jpg","Stimuli/Experimental_stims/objects/alexander-andrews-VLGWE_SumrA-unsplash.jpg","50","50","142","38000","145","47323","","","",""
"","deliberation_confirmation","","html-keyboard-response","189","98778","0.0-3.0-76.0-2.0-0.0","11","17399","11","null","","","","null","","37","","","97912","","","","","","","","","","","","","","","","","2","","","","","","","","","","858","38142","866","47468","858","","",""
"","iti","","html-keyboard-response","190","98891","0.0-3.0-76.0-4.0","11","17399","11","null","","","","null","","37","","","98778","","","","","","","","","","","","","","","","","2","","","","","","","","","","100","39000","113","48334","100","","",""
"","deliberation","","html-keyboard-response","191","99101","0.0-3.0-78.0-0.0","11","17399","11","207","","","","68","","38","","","98891","1","14","35","faces","body_parts","50","50","Stimuli/Experimental_stims/faces/david-siglin-UuW4psOb388-unsplash.jpg","Stimuli/Experimental_stims/body_parts/wc-so-KH4AAPjb-tI-unsplash.jpg","0","F","0","0","","original","2000","2","1","14","35","faces","body_parts","Stimuli/Experimental_stims/faces/david-siglin-UuW4psOb388-unsplash.jpg","Stimuli/Experimental_stims/body_parts/wc-so-KH4AAPjb-tI-unsplash.jpg","50","50","207","39100","210","48447","","","",""
"","deliberation_confirmation","","html-keyboard-response","192","99908","0.0-3.0-78.0-2.0-0.0","11","17399","11","null","","","","null","","38","","","99101","","","","","","","","","","","","","","","","","2","","","","","","","","","","793","39307","807","48657","793","","",""
"","iti","","html-keyboard-response","193","100016","0.0-3.0-78.0-4.0","11","17399","11","null","","","","null","","38","","","99908","","","","","","","","","","","","","","","","","2","","","","","","","","","","100","40100","108","49464","100","","",""
"","deliberation","","html-keyboard-response","194","101426","0.0-3.0-80.0-0.0","11","17399","11","385","","","","68","","39","","","100016","","","","","","","","","","0","K","0","1400","right","scramble","1800","2","1","26","43","body_parts","objects","Stimuli/Experimental_stims/scramble/body_parts/scrambled_engin-akyurt-x_3gyC42btc-unsplash.jpg","Stimuli/Experimental_stims/scramble/objects/scrambled_jonathan-greenaway-Y4hGgeiFn3s-unsplash.jpg","NaN","NaN","1400","40200","1410","49572","","","",""
"","scramble_prompt","","html-keyboard-response","195","101430","0.0-3.0-80.0-1.0-0.0","11","17399","11","null","","","","null","","39","","","101426","NaN","NaN","NaN","NaN","NaN","","","NaN","NaN","","","","","","","","2","","","","","","","","","","-400","41600","4","50982","-400","0","1",""
"","deliberation_no_response","","html-keyboard-response","196","101535","0.0-3.0-80.0-3.0-0.0","11","17399","11","null","","","","null","","39","","","101430","","","","","","","","","","1","","","","","","","2","","","","","","","","","","100","41200","105","50986","","","","1"
"","iti","","html-keyboard-response","197","101640","0.0-3.0-80.0-4.0","11","17399","11","null","","","","null","","39","","","101535","","","","","","","","","","","","","","","","","2","","","","","","","","","","100","41300","105","51091","100","","",""
"","deliberation","","html-keyboard-response","198","101887","0.0-3.0-82.0-0.0","11","17399","11","246","","","","68","","40","","","101640","1","33","23","body_parts","faces","50","50","Stimuli/Experimental_stims/body_parts/tucker-good-36skLT5jZcc-unsplash.jpg","Stimuli/Experimental_stims/faces/rikonavt-HQjfrvdTfak-unsplash.jpg","0","L","0","0","","original","1700","2","1","33","23","body_parts","faces","Stimuli/Experimental_stims/body_parts/tucker-good-36skLT5jZcc-unsplash.jpg","Stimuli/Experimental_stims/faces/rikonavt-HQjfrvdTfak-unsplash.jpg","50","50","246","41400","247","51196","","","",""
"","deliberation_confirmation","","html-keyboard-response","199","102651","0.0-3.0-82.0-2.0-0.0","11","17399","11","null","","","","null","","40","","","101887","","","","","","","","","","","","","","","","","2","","","","","","","","","","754","41646","764","51443","754","","",""
"","iti","","html-keyboard-response","200","102759","0.0-3.0-82.0-4.0","11","17399","11","null","","","","null","","40","","","102651","","","","","","","","","","","","","","","","","2","","","","","","","","","","100","42400","108","52207","100","","",""
"","deliberation","","html-keyboard-response","201","102994","0.0-3.0-84.0-0.0","11","17399","11","233","","","","68","","41","","","102759","1","42","21","objects","faces","50","50","Stimuli/Experimental_stims/objects/jess-bailey-nOeVi8DsN8U-unsplash.jpg","Stimuli/Experimental_stims/faces/leilani-angel-K84vnnzxmTQ-unsplash.jpg","0","D","0","0","","original","1500","2","1","42","21","objects","faces","Stimuli/Experimental_stims/objects/jess-bailey-nOeVi8DsN8U-unsplash.jpg","Stimuli/Experimental_stims/faces/leilani-angel-K84vnnzxmTQ-unsplash.jpg","50","50","233","42500","235","52315","","","",""
"","deliberation_confirmation","","html-keyboard-response","202","103769","0.0-3.0-84.0-2.0-0.0","11","17399","11","null","","","","null","","41","","","102994","","","","","","","","","","","","","","","","","2","","","","","","","","","","767","42733","775","52550","767","","",""
"","iti","","html-keyboard-response","203","103884","0.0-3.0-84.0-4.0","11","17399","11","null","","","","null","","41","","","103769","","","","","","","","","","","","","","","","","2","","","","","","","","","","100","43500","115","53325","100","","",""
"","deliberation","","html-keyboard-response","204","105098","0.0-3.0-86.0-0.0","11","17399","11","72","","","","68","","42","","","103884","","","","","","","","","","0","A","0","1200","left","scramble","2400","2","1","1","37","outdoor_scenes","objects","Stimuli/Experimental_stims/scramble/outdoor_scenes/scrambled_ashim-d-silva-S2Q5mdOrrVc-unsplash.jpg","Stimuli/Experimental_stims/scramble/objects/scrambled_alexander-andrews-VLGWE_SumrA-unsplash.jpg","NaN","NaN","1200","43600","1214","53440","","","",""
"","scramble_prompt","","html-keyboard-response","205","105101","0.0-3.0-86.0-1.0-0.0","11","17399","11","null","","","","null","","42","","","105098","NaN","NaN","NaN","NaN","NaN","","","NaN","NaN","","","","","","","","2","","","","","","","","","","-200","44800","3","54654","-200","0","1",""
"","deliberation_no_response","","html-keyboard-response","206","105208","0.0-3.0-86.0-3.0-0.0","11","17399","11","null","","","","null","","42","","","105101","","","","","","","","","","1","","","","","","","2","","","","","","","","","","100","44600","107","54657","","","","1"
"","iti","","html-keyboard-response","207","105323","0.0-3.0-86.0-4.0","11","17399","11","null","","","","null","","42","","","105208","","","","","","","","","","","","","","","","","2","","","","","","","","","","100","44700","115","54764","100","","",""
"","deliberation","","html-keyboard-response","208","105548","0.0-3.0-88.0-0.0","11","17399","11","222","","","","68","","43","","","105323","1","46","10","objects","outdoor_scenes","50","50","Stimuli/Experimental_stims/objects/mockup-graphics-PNsj6RiHAF4-unsplash.jpg","Stimuli/Experimental_stims/outdoor_scenes/shannon-kunkle-dM8INmkyDas-unsplash.jpg","0","G","0","0","","original","3600","2","1","46","10","objects","outdoor_scenes","Stimuli/Experimental_stims/objects/mockup-graphics-PNsj6RiHAF4-unsplash.jpg","Stimuli/Experimental_stims/outdoor_scenes/shannon-kunkle-dM8INmkyDas-unsplash.jpg","50","50","222","44800","225","54879","","","",""
"","deliberation_confirmation","","html-keyboard-response","209","106337","0.0-3.0-88.0-2.0-0.0","11","17399","11","null","","","","null","","43","","","105548","","","","","","","","","","","","","","","","","2","","","","","","","","","","778","45022","789","55104","778","","",""
"","iti","","html-keyboard-response","210","106447","0.0-3.0-88.0-4.0","11","17399","11","null","","","","null","","43","","","106337","","","","","","","","","","","","","","","","","2","","","","","","","","","","100","45800","110","55893","100","","",""
"","deliberation","","html-keyboard-response","211","108255","0.0-3.0-90.0-0.0","11","17399","11","407","","","","68","","44","","","106447","","","","","","","","","","0","G","0","1800","right","scramble","1300","2","1","46","10","objects","outdoor_scenes","Stimuli/Experimental_stims/scramble/objects/scrambled_mockup-graphics-PNsj6RiHAF4-unsplash.jpg","Stimuli/Experimental_stims/scramble/outdoor_scenes/scrambled_shannon-kunkle-dM8INmkyDas-unsplash.jpg","NaN","NaN","1800","45900","1808","56003","","","",""
"","scramble_prompt","","html-keyboard-response","212","108259","0.0-3.0-90.0-1.0-0.0","11","17399","11","null","","","","null","","44","","","108255","NaN","NaN","NaN","NaN","NaN","","","NaN","NaN","","","","","","","","2","","","","","","","","","","-800","47700","4","57811","-800","0","1",""
"","deliberation_no_response","","html-keyboard-response","213","108367","0.0-3.0-90.0-3.0-0.0","11","17399","11","null","","","","null","","44","","","108259","","","","","","","","","","1","","","","","","","2","","","","","","","","","","100","46900","108","57815","","","","1"
"","iti","","html-keyboard-response","214","108473","0.0-3.0-90.0-4.0","11","17399","11","null","","","","null","","44","","","108367","","","","","","","","","","","","","","","","","2","","","","","","","","","","100","47000","106","57923","100","","",""
"","deliberation","","html-keyboard-response","215","110279","0.0-3.0-92.0-0.0","11","17399","11","270","","","","68","","45","","","108473","","","","","","","","","","0","J","0","1800","left","scramble","1000","2","1","15","36","faces","objects","Stimuli/Experimental_stims/scramble/faces/scrambled_erik-lucatero-d2MSDujJl2g-unsplash.jpg","Stimuli/Experimental_stims/scramble/objects/scrambled_alexander-andrews-JYGnB9gTCls-unsplash.jpg","NaN","NaN","1800","47100","1806","58029","","","",""
"","scramble_prompt","","html-keyboard-response","216","110286","0.0-3.0-92.0-1.0-0.0","11","17399","11","null","","","","null","","45","","","110279","NaN","NaN","NaN","NaN","NaN","","","NaN","NaN","","","","","","","","2","","","","","","","","","","-800","48900","7","59835","-800","0","1",""
"","deliberation_no_response","","html-keyboard-response","217","110392","0.0-3.0-92.0-3.0-0.0","11","17399","11","null","","","","null","","45","","","110286","","","","","","","","","","1","","","","","","","2","","","","","","","","","","100","48100","106","59842","","","","1"
"","iti","","html-keyboard-response","218","110504","0.0-3.0-92.0-4.0","11","17399","11","null","","","","null","","45","","","110392","","","","","","","","","","","","","","","","","2","","","","","","","","","","100","48200","112","59948","100","","",""
"","deliberation","","html-keyboard-response","219","110802","0.0-3.0-94.0-0.0","11","17399","11","294","","","","68","","46","","","110504","1","8","22","outdoor_scenes","faces","50","50","Stimuli/Experimental_stims/outdoor_scenes/samsommer-vddccTqwal8-unsplash.jpg","Stimuli/Experimental_stims/faces/ravi-patel-VMGAbeeJTKo-unsplash.jpg","0","B","0","0","","original","1700","2","1","8","22","outdoor_scenes","faces","Stimuli/Experimental_stims/outdoor_scenes/samsommer-vddccTqwal8-unsplash.jpg","Stimuli/Experimental_stims/faces/ravi-patel-VMGAbeeJTKo-unsplash.jpg","50","50","294","48300","298","60060","","","",""
"","deliberation_confirmation","","html-keyboard-response","220","111521","0.0-3.0-94.0-2.0-0.0","11","17399","11","null","","","","null","","46","","","110802","","","","","","","","","","","","","","","","","2","","","","","","","","","","706","48594","719","60358","706","","",""
"","iti","","html-keyboard-response","221","111635","0.0-3.0-94.0-4.0","11","17399","11","null","","","","null","","46","","","111521","","","","","","","","","","","","","","","","","2","","","","","","","","","","100","49300","114","61077","100","","",""
"","deliberation","","html-keyboard-response","222","112946","0.0-3.0-96.0-0.0","11","17399","11","47","","","","68","","47","","","111635","","","","","","","","","","0","I","0","1300","right","scramble","1200","2","1","28","5","body_parts","outdoor_scenes","Stimuli/Experimental_stims/scramble/body_parts/scrambled_ira-vishnevskaya-8DQAvdCby1I-unsplash.jpg","Stimuli/Experimental_stims/scramble/outdoor_scenes/scrambled_jeff-king-bJHWJeiHfHc-unsplash.jpg","NaN","NaN","1300","49400","1311","61191","","","",""
"","scramble_prompt","","html-keyboard-response","223","112950","0.0-3.0-96.0-1.0-0.0","11","17399","11","null","","","","null","","47","","","112946","NaN","NaN","NaN","NaN","NaN","","","NaN","NaN","","","","","","","","2","","","","","","","","","","-300","50700","4","62502","-300","0","1",""
"","deliberation_no_response","","html-keyboard-response","224","113060","0.0-3.0-96.0-3.0-0.0","11","17399","11","null","","","","null","","47","","","112950","","","","","","","","","","1","","","","","","","2","","","","","","","","","","100","50400","110","62506","","","","1"
"","iti","","html-keyboard-response","225","113168","0.0-3.0-96.0-4.0","11","17399","11","null","","","","null","","47","","","113060","","","","","","","","","","","","","","","","","2","","","","","","","","","","100","50500","108","62616","100","","",""
"","deliberation","","html-keyboard-response","226","113581","0.0-3.0-98.0-0.0","11","17399","11","409","","","","68","","48","","","113168","1","12","4","faces","outdoor_scenes","50","50","Stimuli/Experimental_stims/faces/aiony-haust-jmATI5Q_YgY-unsplash.jpg","Stimuli/Experimental_stims/outdoor_scenes/jarrett-kow-1ZOyYPOBn7I-unsplash.jpg","0","H","0","0","","original","2800","2","1","12","4","faces","outdoor_scenes","Stimuli/Experimental_stims/faces/aiony-haust-jmATI5Q_YgY-unsplash.jpg","Stimuli/Experimental_stims/outdoor_scenes/jarrett-kow-1ZOyYPOBn7I-unsplash.jpg","50","50","409","50600","413","62724","","","",""
"","deliberation_confirmation","","html-keyboard-response","227","114184","0.0-3.0-98.0-2.0-0.0","11","17399","11","null","","","","null","","48","","","113581","","","","","","","","","","","","","","","","","2","","","","","","","","","","591","51009","603","63137","591","","",""
"","iti","","html-keyboard-response","228","114296","0.0-3.0-98.0-4.0","11","17399","11","null","","","","null","","48","","","114184","","","","","","","","","","","","","","","","","2","","","","","","","","","","100","51600","112","63740","100","","",""
"","deliberation","","html-keyboard-response","229","115607","0.0-3.0-100.0-0.0","11","17399","11","40","","","","68","","49","","","114296","","","","","","","","","","0","L","0","1300","left","scramble","1400","2","1","33","23","body_parts","faces","Stimuli/Experimental_stims/scramble/body_parts/scrambled_tucker-good-36skLT5jZcc-unsplash.jpg","Stimuli/Experimental_stims/scramble/faces/scrambled_rikonavt-HQjfrvdTfak-unsplash.jpg","NaN","NaN","1300","51700","1311","63852","","","",""
"","scramble_prompt","","html-keyboard-response","230","115611","0.0-3.0-100.0-1.0-0.0","11","17399","11","null","","","","null","","49","","","115607","NaN","NaN","NaN","NaN","NaN","","","NaN","NaN","","","","","","","","2","","","","","","","","","","-300","53000","4","65163","-300","0","1",""
"","deliberation_no_response","","html-keyboard-response","231","115723","0.0-3.0-100.0-3.0-0.0","11","17399","11","null","","","","null","","49","","","115611","","","","","","","","","","1","","","","","","","2","","","","","","","","","","100","52700","112","65167","","","","1"
"","iti","","html-keyboard-response","232","115834","0.0-3.0-100.0-4.0","11","17399","11","null","","","","null","","49","","","115723","","","","","","","","","","","","","","","","","2","","","","","","","","","","100","52800","111","65279","100","","",""
"","deliberation","","html-keyboard-response","233","116842","0.0-3.0-102.0-0.0","11","17399","11","149","","","","68","","50","","","115834","","","","","","","","","","0","E","0","1000","left","scramble","1300","2","1","41","24","objects","body_parts","Stimuli/Experimental_stims/scramble/objects/scrambled_insung-yoon-w2JtIQQXoRU-unsplash.jpg","Stimuli/Experimental_stims/scramble/body_parts/scrambled_clay-banks-LjqARJaJotc-unsplash.jpg","NaN","NaN","1000","52900","1008","65390","","","",""
"","scramble_prompt","","html-keyboard-response","234","116850","0.0-3.0-102.0-1.0-0.0","11","17399","11","null","","","","null","","50","","","116842","NaN","NaN","NaN","NaN","NaN","","","NaN","NaN","","","","","","","","2","","","","","","","","","","0","53900","8","66398","0","0","1",""
"","deliberation_no_response","","html-keyboard-response","235","116953","0.0-3.0-102.0-3.0-0.0","11","17399","11","null","","","","null","","50","","","116850","","","","","","","","","","1","","","","","","","2","","","","","","","","","","100","53900","103","66406","","","","1"
"","iti","","html-keyboard-response","236","117066","0.0-3.0-102.0-4.0","11","17399","11","null","","","","null","","50","","","116953","","","","","","","","","","","","","","","","","2","","","","","","","","","","100","54000","113","66509","100","","",""
"","deliberation","","html-keyboard-response","237","117364","0.0-3.0-104.0-0.0","11","17399","11","296","","","","68","","51","","","117066","1","15","36","faces","objects","50","50","Stimuli/Experimental_stims/faces/erik-lucatero-d2MSDujJl2g-unsplash.jpg","Stimuli/Experimental_stims/objects/alexander-andrews-JYGnB9gTCls-unsplash.jpg","0","J","0","0","","original","4900","2","1","15","36","faces","objects","Stimuli/Experimental_stims/faces/erik-lucatero-d2MSDujJl2g-unsplash.jpg","Stimuli/Experimental_stims/objects/alexander-andrews-JYGnB9gTCls-unsplash.jpg","50","50","296","54100","298","66622","","","",""
"","deliberation_confirmation","","html-keyboard-response","238","118080","0.0-3.0-104.0-2.0-0.0","11","17399","11","null","","","","null","","51","","","117364","","","","","","","","","","","","","","","","","2","","","","","","","","","","704","54396","716","66920","704","","",""
"","iti","","html-keyboard-response","239","118183","0.0-3.0-104.0-4.0","11","17399","11","null","","","","null","","51","","","118080","","","","","","","","","","","","","","","","","2","","","","","","","","","","100","55100","103","67636","100","","",""
"","deliberation_run_over","","html-keyboard-response","240","120857","0.0-3.0-104.0-6.0-0.0","11","17399","11","2671","","","","68","","51","","","","","","","","","","","","","","","","","","","","","","","","","","","","","","","","","","","","",""
"","start_run","","html-keyboard-response","241","121965","0.0-3.0-104.0-6.0-1.0","11","17399","11","1107","","","","84","","","","","","","","","","","","","","","","","","","","","","","","","","","","","","","","","","","","","","",""
"","deliberation","","html-keyboard-response","242","122875","0.0-3.0-106.0-0.0","11","17399","11","null","","","","null","","52","","","121965","","","","","","","","","","1","E","0","900","right","scramble","3800","3","2","41","24","objects","body_parts","Stimuli/Experimental_stims/scramble/objects/scrambled_insung-yoon-w2JtIQQXoRU-unsplash.jpg","Stimuli/Experimental_stims/scramble/body_parts/scrambled_clay-banks-LjqARJaJotc-unsplash.jpg","NaN","NaN","900","0","910","0","","","",""
"","scramble_prompt","","html-keyboard-response","243","122983","0.0-3.0-106.0-1.0-0.0","11","17399","11","null","","","","null","","52","","","122875","NaN","NaN","NaN","NaN","NaN","","","NaN","NaN","","","","","","","","3","","","","","","","","","","100","900","108","910","100","0","1",""
"","deliberation_no_response","","html-keyboard-response","244","123091","0.0-3.0-106.0-3.0-0.0","11","17399","11","null","","","","null","","52","","","122983","","","","","","","","","","1","","","","","","","3","","","","","","","","","","100","1000","108","1018","","","","1"
"","iti","","html-keyboard-response","245","123202","0.0-3.0-106.0-4.0","11","17399","11","null","","","","null","","52","","","123091","","","","","","","","","","","","","","","","","3","","","","","","","","","","100","1100","111","1126","100","","",""
"","deliberation","","html-keyboard-response","246","124213","0.0-3.0-108.0-0.0","11","17399","11","null","","","","null","","53","","","123202","NaN","NaN","NaN","NaN","NaN","NaN","NaN","NaN","NaN","1","J","0","0","","original","2100","3","2","15","36","faces","objects","Stimuli/Experimental_stims/faces/erik-lucatero-d2MSDujJl2g-unsplash.jpg","Stimuli/Experimental_stims/objects/alexander-andrews-JYGnB9gTCls-unsplash.jpg","50","50","1000","1200","1011","1237","","","",""
"","deliberation_no_response","","html-keyboard-response","247","124320","0.0-3.0-108.0-3.0-0.0","11","17399","11","null","","","","null","","53","","","124213","","","","","","","","","","1","","","","","","","3","","","","","","","","","","100","2200","107","2248","","","","1"
"","iti","","html-keyboard-response","248","124434","0.0-3.0-108.0-4.0","11","17399","11","null","","","","null","","53","","","124320","","","","","","","","","","","","","","","","","3","","","","","","","","","","100","2300","114","2355","100","","",""
"","deliberation","","html-keyboard-response","249","125440","0.0-3.0-110.0-0.0","11","17399","11","null","","","","null","","54","","","124434","NaN","NaN","NaN","NaN","NaN","NaN","NaN","NaN","NaN","1","K","0","0","","original","1500","3","2","26","43","body_parts","objects","Stimuli/Experimental_stims/body_parts/engin-akyurt-x_3gyC42btc-unsplash.jpg","Stimuli/Experimental_stims/objects/jonathan-greenaway-Y4hGgeiFn3s-unsplash.jpg","50","50","1000","2400","1006","2469","","","",""
"","deliberation_no_response","","html-keyboard-response","250","125551","0.0-3.0-110.0-3.0-0.0","11","17399","11","null","","","","null","","54","","","125440","","","","","","","","","","1","","","","","","","3","","","","","","","","","","100","3400","111","3475","","","","1"
"","iti","","html-keyboard-response","251","125657","0.0-3.0-110.0-4.0","11","17399","11","null","","","","null","","54","","","125551","","","","","","","","","","","","","","","","","3","","","","","","","","","","100","3500","106","3586","100","","",""
"","deliberation","","html-keyboard-response","252","126567","0.0-3.0-112.0-0.0","11","17399","11","null","","","","null","","55","","","125657","","","","","","","","","","1","K","0","900","left","scramble","2100","3","2","26","43","body_parts","objects","Stimuli/Experimental_stims/scramble/body_parts/scrambled_engin-akyurt-x_3gyC42btc-unsplash.jpg","Stimuli/Experimental_stims/scramble/objects/scrambled_jonathan-greenaway-Y4hGgeiFn3s-unsplash.jpg","NaN","NaN","900","3600","910","3692","","","",""
"","scramble_prompt","","html-keyboard-response","253","126671","0.0-3.0-112.0-1.0-0.0","11","17399","11","null","","","","null","","55","","","126567","NaN","NaN","NaN","NaN","NaN","","","NaN","NaN","","","","","","","","3","","","","","","","","","","100","4500","104","4602","100","0","1",""
"","deliberation_no_response","","html-keyboard-response","254","126780","0.0-3.0-112.0-3.0-0.0","11","17399","11","null","","","","null","","55","","","126671","","","","","","","","","","1","","","","","","","3","","","","","","","","","","100","4600","109","4706","","","","1"
"","iti","","html-keyboard-response","255","126890","0.0-3.0-112.0-4.0","11","17399","11","null","","","","null","","55","","","126780","","","","","","","","","","","","","","","","","3","","","","","","","","","","100","4700","110","4815","100","","",""
"","deliberation","","html-keyboard-response","256","127897","0.0-3.0-114.0-0.0","11","17399","11","null","","","","null","","56","","","126890","NaN","NaN","NaN","NaN","NaN","NaN","NaN","NaN","NaN","1","E","0","0","","original","1400","3","2","41","24","objects","body_parts","Stimuli/Experimental_stims/objects/insung-yoon-w2JtIQQXoRU-unsplash.jpg","Stimuli/Experimental_stims/body_parts/clay-banks-LjqARJaJotc-unsplash.jpg","50","50","1000","4800","1007","4925","","","",""
"","deliberation_no_response","","html-keyboard-response","257","128008","0.0-3.0-114.0-3.0-0.0","11","17399","11","null","","","","null","","56","","","127897","","","","","","","","","","1","","","","","","","3","","","","","","","","","","100","5800","111","5932","","","","1"
"","iti","","html-keyboard-response","258","128125","0.0-3.0-114.0-4.0","11","17399","11","null","","","","null","","56","","","128008","","","","","","","","","","","","","","","","","3","","","","","","","","","","100","5900","117","6043","100","","",""
"","deliberation","","html-keyboard-response","259","129339","0.0-3.0-116.0-0.0","11","17399","11","null","","","","null","","57","","","128125","","","","","","","","","","1","L","0","1200","left","scramble","2400","3","2","33","23","body_parts","faces","Stimuli/Experimental_stims/scramble/body_parts/scrambled_tucker-good-36skLT5jZcc-unsplash.jpg","Stimuli/Experimental_stims/scramble/faces/scrambled_rikonavt-HQjfrvdTfak-unsplash.jpg","NaN","NaN","1200","6000","1214","6160","","","",""
"","scramble_prompt","","html-keyboard-response","260","129347","0.0-3.0-116.0-1.0-0.0","11","17399","11","null","","","","null","","57","","","129339","NaN","NaN","NaN","NaN","NaN","","","NaN","NaN","","","","","","","","3","","","","","","","","","","-200","7200","8","7374","-200","0","1",""
"","deliberation_no_response","","html-keyboard-response","261","129452","0.0-3.0-116.0-3.0-0.0","11","17399","11","null","","","","null","","57","","","129347","","","","","","","","","","1","","","","","","","3","","","","","","","","","","100","7000","105","7382","","","","1"
"","iti","","html-keyboard-response","262","129564","0.0-3.0-116.0-4.0","11","17399","11","null","","","","null","","57","","","129452","","","","","","","","","","","","","","","","","3","","","","","","","","","","100","7100","112","7487","100","","",""
"","deliberation","","html-keyboard-response","263","130577","0.0-3.0-118.0-0.0","11","17399","11","null","","","","null","","58","","","129564","NaN","NaN","NaN","NaN","NaN","NaN","NaN","NaN","NaN","1","A","0","0","","original","1400","3","2","1","37","outdoor_scenes","objects","Stimuli/Experimental_stims/outdoor_scenes/ashim-d-silva-S2Q5mdOrrVc-unsplash.jpg","Stimuli/Experimental_stims/objects/alexander-andrews-VLGWE_SumrA-unsplash.jpg","50","50","1000","7200","1013","7599","","","",""
"","deliberation_no_response","","html-keyboard-response","264","130690","0.0-3.0-118.0-3.0-0.0","11","17399","11","null","","","","null","","58","","","130577","","","","","","","","","","1","","","","","","","3","","","","","","","","","","100","8200","113","8612","","","","1"
"","iti","","html-keyboard-response","265","130801","0.0-3.0-118.0-4.0","11","17399","11","null","","","","null","","58","","","130690","","","","","","","","","","","","","","","","","3","","","","","","","","","","100","8300","111","8725","100","","",""
"","deliberation","","html-keyboard-response","266","131808","0.0-3.0-120.0-0.0","11","17399","11","null","","","","null","","59","","","130801","NaN","NaN","NaN","NaN","NaN","NaN","NaN","NaN","NaN","1","H","0","0","","original","1400","3","2","12","4","faces","outdoor_scenes","Stimuli/Experimental_stims/faces/aiony-haust-jmATI5Q_YgY-unsplash.jpg","Stimuli/Experimental_stims/outdoor_scenes/jarrett-kow-1ZOyYPOBn7I-unsplash.jpg","50","50","1000","8400","1007","8836","","","",""
"","deliberation_no_response","","html-keyboard-response","267","131911","0.0-3.0-120.0-3.0-0.0","11","17399","11","null","","","","null","","59","","","131808","","","","","","","","","","1","","","","","","","3","","","","","","","","","","100","9400","103","9843","","","","1"
"","iti","","html-keyboard-response","268","132020","0.0-3.0-120.0-4.0","11","17399","11","null","","","","null","","59","","","131911","","","","","","","","","","","","","","","","","3","","","","","","","","","","100","9500","109","9946","100","","",""
"","deliberation","","html-keyboard-response","269","133432","0.0-3.0-122.0-0.0","11","17399","11","null","","","","null","","60","","","132020","","","","","","","","","","1","A","0","1400","left","scramble","1500","3","2","1","37","outdoor_scenes","objects","Stimuli/Experimental_stims/scramble/outdoor_scenes/scrambled_ashim-d-silva-S2Q5mdOrrVc-unsplash.jpg","Stimuli/Experimental_stims/scramble/objects/scrambled_alexander-andrews-VLGWE_SumrA-unsplash.jpg","NaN","NaN","1400","9600","1412","10055","","","",""
"","scramble_prompt","","html-keyboard-response","270","133441","0.0-3.0-122.0-1.0-0.0","11","17399","11","null","","","","null","","60","","","133432","NaN","NaN","NaN","NaN","NaN","","","NaN","NaN","","","","","","","","3","","","","","","","","","","-400","11000","9","11467","-400","0","1",""
"","deliberation_no_response","","html-keyboard-response","271","133543","0.0-3.0-122.0-3.0-0.0","11","17399","11","null","","","","null","","60","","","133441","","","","","","","","","","1","","","","","","","3","","","","","","","","","","100","10600","102","11476","","","","1"
"","iti","","html-keyboard-response","272","133647","0.0-3.0-122.0-4.0","11","17399","11","null","","","","null","","60","","","133543","","","","","","","","","","","","","","","","","3","","","","","","","","","","100","10700","104","11578","100","","",""
"","deliberation","","html-keyboard-response","273","134660","0.0-3.0-124.0-0.0","11","17399","11","null","","","","null","","61","","","133647","","","","","","","","","","1","C","0","1000","left","scramble","2900","3","2","2","27","outdoor_scenes","body_parts","Stimuli/Experimental_stims/scramble/outdoor_scenes/scrambled_bruno-van-der-kraan-qez8mNJ3ilU-unsplash.jpg","Stimuli/Experimental_stims/scramble/body_parts/scrambled_heike-mintel-i_Gns0ELnLw-unsplash.jpg","NaN","NaN","1000","10800","1013","11682","","","",""
"","scramble_prompt","","html-keyboard-response","274","134667","0.0-3.0-124.0-1.0-0.0","11","17399","11","null","","","","null","","61","","","134660","NaN","NaN","NaN","NaN","NaN","","","NaN","NaN","","","","","","","","3","","","","","","","","","","0","11800","7","12695","0","0","1",""
"","deliberation_no_response","","html-keyboard-response","275","134773","0.0-3.0-124.0-3.0-0.0","11","17399","11","null","","","","null","","61","","","134667","","","","","","","","","","1","","","","","","","3","","","","","","","","","","100","11800","106","12702","","","","1"
"","iti","","html-keyboard-response","276","134883","0.0-3.0-124.0-4.0","11","17399","11","null","","","","null","","61","","","134773","","","","","","","","","","","","","","","","","3","","","","","","","","","","100","11900","110","12808","100","","",""
"","deliberation","","html-keyboard-response","277","135886","0.0-3.0-126.0-0.0","11","17399","11","null","","","","null","","62","","","134883","NaN","NaN","NaN","NaN","NaN","NaN","NaN","NaN","NaN","1","C","0","0","","original","2000","3","2","2","27","outdoor_scenes","body_parts","Stimuli/Experimental_stims/outdoor_scenes/bruno-van-der-kraan-qez8mNJ3ilU-unsplash.jpg","Stimuli/Experimental_stims/body_parts/heike-mintel-i_Gns0ELnLw-unsplash.jpg","50","50","1000","12000","1003","12918","","","",""
"","deliberation_no_response","","html-keyboard-response","278","135994","0.0-3.0-126.0-3.0-0.0","11","17399","11","null","","","","null","","62","","","135886","","","","","","","","","","1","","","","","","","3","","","","","","","","","","100","13000","108","13921","","","","1"
"","iti","","html-keyboard-response","279","136103","0.0-3.0-126.0-4.0","11","17399","11","null","","","","null","","62","","","135994","","","","","","","","","","","","","","","","","3","","","","","","","","","","100","13100","109","14029","100","","",""
"","deliberation","","html-keyboard-response","280","137114","0.0-3.0-128.0-0.0","11","17399","11","null","","","","null","","63","","","136103","NaN","NaN","NaN","NaN","NaN","NaN","NaN","NaN","NaN","1","G","0","0","","original","2000","3","2","46","10","objects","outdoor_scenes","Stimuli/Experimental_stims/objects/mockup-graphics-PNsj6RiHAF4-unsplash.jpg","Stimuli/Experimental_stims/outdoor_scenes/shannon-kunkle-dM8INmkyDas-unsplash.jpg","50","50","1000","13200","1011","14138","","","",""
"","deliberation_no_response","","html-keyboard-response","281","137224","0.0-3.0-128.0-3.0-0.0","11","17399","11","null","","","","null","","63","","","137114","","","","","","","","","","1","","","","","","","3","","","","","","","","","","100","14200","110","15149","","","","1"
"","iti","","html-keyboard-response","282","137332","0.0-3.0-128.0-4.0","11","17399","11","null","","","","null","","63","","","137224","","","","","","","","","","","","","","","","","3","","","","","","","","","","100","14300","108","15259","100","","",""
"","deliberation","","html-keyboard-response","283","138641","0.0-3.0-130.0-0.0","11","17399","11","null","","","","null","","64","","","137332","","","","","","","","","","1","G","0","1300","right","scramble","2100","3","2","46","10","objects","outdoor_scenes","Stimuli/Experimental_stims/scramble/objects/scrambled_mockup-graphics-PNsj6RiHAF4-unsplash.jpg","Stimuli/Experimental_stims/scramble/outdoor_scenes/scrambled_shannon-kunkle-dM8INmkyDas-unsplash.jpg","NaN","NaN","1300","14400","1309","15367","","","",""
"","scramble_prompt","","html-keyboard-response","284","138649","0.0-3.0-130.0-1.0-0.0","11","17399","11","null","","","","null","","64","","","138641","NaN","NaN","NaN","NaN","NaN","","","NaN","NaN","","","","","","","","3","","","","","","","","","","-300","15700","8","16676","-300","0","1",""
"","deliberation_no_response","","html-keyboard-response","285","138755","0.0-3.0-130.0-3.0-0.0","11","17399","11","null","","","","null","","64","","","138649","","","","","","","","","","1","","","","","","","3","","","","","","","","","","100","15400","106","16684","","","","1"
"","iti","","html-keyboard-response","286","138866","0.0-3.0-130.0-4.0","11","17399","11","null","","","","null","","64","","","138755","","","","","","","","","","","","","","","","","3","","","","","","","","","","100","15500","111","16790","100","","",""
"","deliberation","","html-keyboard-response","287","139980","0.0-3.0-132.0-0.0","11","17399","11","null","","","","null","","65","","","138866","","","","","","","","","","1","F","0","1100","left","scramble","2100","3","2","14","35","faces","body_parts","Stimuli/Experimental_stims/scramble/faces/scrambled_david-siglin-UuW4psOb388-unsplash.jpg","Stimuli/Experimental_stims/scramble/body_parts/scrambled_wc-so-KH4AAPjb-tI-unsplash.jpg","NaN","NaN","1100","15600","1114","16901","","","",""
"","scramble_prompt","","html-keyboard-response","288","139988","0.0-3.0-132.0-1.0-0.0","11","17399","11","null","","","","null","","65","","","139980","NaN","NaN","NaN","NaN","NaN","","","NaN","NaN","","","","","","","","3","","","","","","","","","","-100","16700","8","18015","-100","0","1",""
"","deliberation_no_response","","html-keyboard-response","289","140091","0.0-3.0-132.0-3.0-0.0","11","17399","11","null","","","","null","","65","","","139988","","","","","","","","","","1","","","","","","","3","","","","","","","","","","100","16600","103","18023","","","","1"
"","iti","","html-keyboard-response","290","140201","0.0-3.0-132.0-4.0","11","17399","11","null","","","","null","","65","","","140091","","","","","","","","","","","","","","","","","3","","","","","","","","","","100","16700","110","18126","100","","",""
