,PID,practice,run,block,trial,iti,pair_id,choice_type,reward_type,stimulus_id,path,outcome_response,outcome_rt,outcome_acc,long_iti,simulation,version
0,,1,0,,1,1500,,,,,Stimuli/Practice_stims/Outcome_estimation/becca-tapert-sY5RjMB1KkE-unsplash.jpg,,,,,31,2
1,,1,0,,2,1000,,,,,Stimuli/Practice_stims/Outcome_estimation/clay-banks-1KPfcPdbWFM-unsplash.jpg,,,,,31,2
2,,1,0,,3,3000,,,,,Stimuli/Practice_stims/Outcome_estimation/melissa-keizer-sV4Pd8wq5_o-unsplash.jpg,,,,,31,2
3,,0,1,1,4,2300,E,unchosen,,,,,,,0,31,2
4,,0,1,1,5,2500,B,chosen,,,,,,,0,31,2
5,,0,1,1,6,1600,A,unchosen,,,,,,,0,31,2
6,,0,1,1,7,1000,L,unchosen,,,,,,,0,31,2
7,,0,1,1,8,2800,F,chosen,,,,,,,0,31,2
8,,0,1,1,9,1200,F,unchosen,,,,,,,0,31,2
9,,0,1,1,10,1000,C,unchosen,,,,,,,0,31,2
10,,0,1,1,11,3400,J,chosen,,,,,,,1,31,2
11,,0,1,1,12,2900,I,unchosen,,,,,,,0,31,2
12,,0,1,1,13,2700,D,chosen,,,,,,,0,31,2
13,,0,1,1,14,2200,B,unchosen,,,,,,,0,31,2
14,,0,1,1,15,1400,H,chosen,,,,,,,0,31,2
15,,0,1,1,16,2200,L,chosen,,,,,,,0,31,2
16,,0,1,1,17,3200,D,unchosen,,,,,,,1,31,2
17,,0,1,1,18,2500,C,chosen,,,,,,,0,31,2
18,,0,1,1,19,1100,G,unchosen,,,,,,,0,31,2
19,,0,1,1,20,2100,I,chosen,,,,,,,0,31,2
20,,0,1,1,21,2600,E,chosen,,,,,,,0,31,2
21,,0,1,1,22,3300,H,unchosen,,,,,,,1,31,2
22,,0,1,1,23,1900,G,chosen,,,,,,,0,31,2
23,,0,1,1,24,1200,J,unchosen,,,,,,,0,31,2
24,,0,1,1,25,2400,K,chosen,,,,,,,0,31,2
25,,0,1,1,26,1300,A,chosen,,,,,,,0,31,2
26,,0,1,1,27,1800,K,unchosen,,,,,,,0,31,2
27,,0,1,2,28,4200,E,unchosen,,,,,,,1,31,2
28,,0,1,2,29,1300,K,chosen,,,,,,,0,31,2
29,,0,1,2,30,1900,F,chosen,,,,,,,0,31,2
30,,0,1,2,31,1400,L,unchosen,,,,,,,0,31,2
31,,0,1,2,32,1300,J,unchosen,,,,,,,0,31,2
32,,0,1,2,33,1500,D,chosen,,,,,,,0,31,2
33,,0,1,2,34,1300,D,unchosen,,,,,,,0,31,2
34,,0,1,2,35,1700,J,chosen,,,,,,,0,31,2
35,,0,1,2,36,1100,H,chosen,,,,,,,0,31,2
36,,0,1,2,37,3000,B,unchosen,,,,,,,1,31,2
37,,0,1,2,38,1700,A,chosen,,,,,,,0,31,2
38,,0,1,2,39,2900,B,chosen,,,,,,,0,31,2
39,,0,1,2,40,1100,I,unchosen,,,,,,,0,31,2
40,,0,1,2,41,1800,E,chosen,,,,,,,0,31,2
41,,0,1,2,42,1100,G,unchosen,,,,,,,0,31,2
42,,0,1,2,43,2200,L,chosen,,,,,,,0,31,2
43,,0,1,2,44,1700,H,unchosen,,,,,,,0,31,2
44,,0,1,2,45,1100,C,unchosen,,,,,,,0,31,2
45,,0,1,2,46,3600,G,chosen,,,,,,,1,31,2
46,,0,1,2,47,1800,K,unchosen,,,,,,,0,31,2
47,,0,1,2,48,1500,A,unchosen,,,,,,,0,31,2
48,,0,1,2,49,1700,I,chosen,,,,,,,0,31,2
49,,0,1,2,50,1400,F,unchosen,,,,,,,0,31,2
50,,0,1,2,51,3100,C,chosen,,,,,,,1,31,2
51,,0,1,3,52,2900,L,chosen,,,,,,,1,21,2
52,,0,1,3,53,1500,C,unchosen,,,,,,,0,21,2
53,,0,1,3,54,1700,F,chosen,,,,,,,0,21,2
54,,0,1,3,55,2000,A,chosen,,,,,,,0,21,2
55,,0,1,3,56,2000,J,unchosen,,,,,,,0,21,2
56,,0,1,3,57,2900,E,unchosen,,,,,,,1,21,2
57,,0,1,3,58,2000,G,chosen,,,,,,,0,21,2
58,,0,1,3,59,1000,K,unchosen,,,,,,,0,21,2
59,,0,1,3,60,1100,H,chosen,,,,,,,0,21,2
60,,0,1,3,61,1800,H,unchosen,,,,,,,0,21,2
61,,0,1,3,62,3200,F,unchosen,,,,,,,1,21,2
62,,0,1,3,63,1400,B,chosen,,,,,,,0,21,2
63,,0,1,3,64,2100,G,unchosen,,,,,,,0,21,2
64,,0,1,3,65,1200,K,chosen,,,,,,,0,21,2
65,,0,1,3,66,1100,I,unchosen,,,,,,,0,21,2
66,,0,1,3,67,4300,I,chosen,,,,,,,1,21,2
67,,0,1,3,68,2300,A,unchosen,,,,,,,0,21,2
68,,0,1,3,69,1300,D,chosen,,,,,,,0,21,2
69,,0,1,3,70,2000,D,unchosen,,,,,,,0,21,2
70,,0,1,3,71,1900,C,chosen,,,,,,,0,21,2
71,,0,1,3,72,2800,E,chosen,,,,,,,1,21,2
72,,0,1,3,73,1500,L,unchosen,,,,,,,0,21,2
73,,0,1,3,74,2100,B,unchosen,,,,,,,0,21,2
74,,0,1,3,75,1500,J,chosen,,,,,,,0,21,2
75,,0,1,4,76,1400,C,unchosen,,,,,,,0,21,2
76,,0,1,4,77,4100,F,chosen,,,,,,,1,21,2
77,,0,1,4,78,1000,A,unchosen,,,,,,,0,21,2
78,,0,1,4,79,2200,L,unchosen,,,,,,,0,21,2
79,,0,1,4,80,1500,L,chosen,,,,,,,0,21,2
80,,0,1,4,81,1300,C,chosen,,,,,,,0,21,2
81,,0,1,4,82,2700,J,unchosen,,,,,,,0,21,2
82,,0,1,4,83,1300,B,chosen,,,,,,,0,21,2
83,,0,1,4,84,2600,J,chosen,,,,,,,0,21,2
84,,0,1,4,85,2900,I,unchosen,,,,,,,1,21,2
85,,0,1,4,86,1800,E,chosen,,,,,,,0,21,2
86,,0,1,4,87,1700,G,unchosen,,,,,,,0,21,2
87,,0,1,4,88,1800,B,unchosen,,,,,,,0,21,2
88,,0,1,4,89,1900,D,chosen,,,,,,,0,21,2
89,,0,1,4,90,3600,I,chosen,,,,,,,1,21,2
90,,0,1,4,91,2300,E,unchosen,,,,,,,0,21,2
91,,0,1,4,92,1400,A,chosen,,,,,,,0,21,2
92,,0,1,4,93,2600,H,unchosen,,,,,,,0,21,2
93,,0,1,4,94,2600,D,unchosen,,,,,,,0,21,2
94,,0,1,4,95,1000,H,chosen,,,,,,,0,21,2
95,,0,1,4,96,1200,K,chosen,,,,,,,0,21,2
96,,0,1,4,97,1500,F,unchosen,,,,,,,0,21,2
97,,0,1,4,98,2200,K,unchosen,,,,,,,0,21,2
98,,0,1,4,99,1800,G,chosen,,,,,,,0,21,2