,PID,practice,run,block,trial,iti,pair_id,choice_type,reward_type,stimulus_id,path,outcome_response,outcome_rt,outcome_acc,long_iti,simulation,version
0,,1,0,,1,1500,,,,,Stimuli/Practice_stims/Outcome_estimation/becca-tapert-sY5RjMB1KkE-unsplash.jpg,,,,,34,1
1,,1,0,,2,1000,,,,,Stimuli/Practice_stims/Outcome_estimation/clay-banks-1KPfcPdbWFM-unsplash.jpg,,,,,34,1
2,,1,0,,3,3000,,,,,Stimuli/Practice_stims/Outcome_estimation/melissa-keizer-sV4Pd8wq5_o-unsplash.jpg,,,,,34,1
3,,0,1,1,4,3300,K,chosen,,,,,,,1,34,1
4,,0,1,1,5,2000,C,chosen,,,,,,,0,34,1
5,,0,1,1,6,2200,J,unchosen,,,,,,,0,34,1
6,,0,1,1,7,2600,D,unchosen,,,,,,,0,34,1
7,,0,1,1,8,2500,I,chosen,,,,,,,0,34,1
8,,0,1,1,9,1300,H,unchosen,,,,,,,0,34,1
9,,0,1,1,10,1700,G,unchosen,,,,,,,0,34,1
10,,0,1,1,11,1000,L,chosen,,,,,,,0,34,1
11,,0,1,1,12,2900,B,unchosen,,,,,,,0,34,1
12,,0,1,1,13,2100,E,unchosen,,,,,,,0,34,1
13,,0,1,1,14,3000,H,chosen,,,,,,,1,34,1
14,,0,1,1,15,1300,L,unchosen,,,,,,,0,34,1
15,,0,1,1,16,2800,G,chosen,,,,,,,0,34,1
16,,0,1,1,17,1300,K,unchosen,,,,,,,0,34,1
17,,0,1,1,18,1200,J,chosen,,,,,,,0,34,1
18,,0,1,1,19,3300,B,chosen,,,,,,,1,34,1
19,,0,1,1,20,2200,C,unchosen,,,,,,,0,34,1
20,,0,1,1,21,2700,I,unchosen,,,,,,,0,34,1
21,,0,1,1,22,1200,E,chosen,,,,,,,0,34,1
22,,0,1,1,23,1200,D,chosen,,,,,,,0,34,1
23,,0,1,1,24,4500,A,unchosen,,,,,,,1,34,1
24,,0,1,1,25,1100,A,chosen,,,,,,,0,34,1
25,,0,1,1,26,1100,F,unchosen,,,,,,,0,34,1
26,,0,1,1,27,2900,F,chosen,,,,,,,0,34,1
27,,0,1,2,28,2900,F,chosen,,,,,,,0,34,1
28,,0,1,2,29,1000,L,unchosen,,,,,,,0,34,1
29,,0,1,2,30,1800,A,chosen,,,,,,,0,34,1
30,,0,1,2,31,1400,J,unchosen,,,,,,,0,34,1
31,,0,1,2,32,1000,C,chosen,,,,,,,0,34,1
32,,0,1,2,33,2200,B,chosen,,,,,,,0,34,1
33,,0,1,2,34,1200,A,unchosen,,,,,,,0,34,1
34,,0,1,2,35,1200,D,unchosen,,,,,,,0,34,1
35,,0,1,2,36,4500,L,chosen,,,,,,,1,34,1
36,,0,1,2,37,1100,I,unchosen,,,,,,,0,34,1
37,,0,1,2,38,1600,B,unchosen,,,,,,,0,34,1
38,,0,1,2,39,1700,H,chosen,,,,,,,0,34,1
39,,0,1,2,40,1800,G,unchosen,,,,,,,0,34,1
40,,0,1,2,41,1000,F,unchosen,,,,,,,0,34,1
41,,0,1,2,42,2000,K,chosen,,,,,,,0,34,1
42,,0,1,2,43,1800,C,unchosen,,,,,,,0,34,1
43,,0,1,2,44,1300,J,chosen,,,,,,,0,34,1
44,,0,1,2,45,1100,I,chosen,,,,,,,0,34,1
45,,0,1,2,46,4500,H,unchosen,,,,,,,1,34,1
46,,0,1,2,47,1300,E,chosen,,,,,,,0,34,1
47,,0,1,2,48,1500,K,unchosen,,,,,,,0,34,1
48,,0,1,2,49,2400,G,chosen,,,,,,,0,34,1
49,,0,1,2,50,2900,E,unchosen,,,,,,,0,34,1
50,,0,1,2,51,1400,D,chosen,,,,,,,0,34,1
51,,0,1,3,52,1900,D,chosen,,,,,,,0,10,1
52,,0,1,3,53,1900,E,unchosen,,,,,,,0,10,1
53,,0,1,3,54,2100,D,unchosen,,,,,,,0,10,1
54,,0,1,3,55,1000,F,chosen,,,,,,,0,10,1
55,,0,1,3,56,3200,F,unchosen,,,,,,,1,10,1
56,,0,1,3,57,2400,H,chosen,,,,,,,0,10,1
57,,0,1,3,58,1100,I,chosen,,,,,,,0,10,1
58,,0,1,3,59,1000,I,unchosen,,,,,,,0,10,1
59,,0,1,3,60,1000,L,chosen,,,,,,,0,10,1
60,,0,1,3,61,1100,C,unchosen,,,,,,,0,10,1
61,,0,1,3,62,1300,E,chosen,,,,,,,0,10,1
62,,0,1,3,63,1200,K,unchosen,,,,,,,0,10,1
63,,0,1,3,64,1800,H,unchosen,,,,,,,0,10,1
64,,0,1,3,65,1900,G,chosen,,,,,,,0,10,1
65,,0,1,3,66,4200,B,chosen,,,,,,,1,10,1
66,,0,1,3,67,3000,L,unchosen,,,,,,,0,10,1
67,,0,1,3,68,1000,J,chosen,,,,,,,0,10,1
68,,0,1,3,69,2100,A,unchosen,,,,,,,0,10,1
69,,0,1,3,70,1000,K,chosen,,,,,,,0,10,1
70,,0,1,3,71,3000,C,chosen,,,,,,,0,10,1
71,,0,1,3,72,3400,J,unchosen,,,,,,,1,10,1
72,,0,1,3,73,1800,G,unchosen,,,,,,,0,10,1
73,,0,1,3,74,1400,A,chosen,,,,,,,0,10,1
74,,0,1,3,75,1300,B,unchosen,,,,,,,0,10,1
75,,0,1,4,76,2200,K,chosen,,,,,,,0,10,1
76,,0,1,4,77,3800,I,unchosen,,,,,,,1,10,1
77,,0,1,4,78,1200,H,unchosen,,,,,,,0,10,1
78,,0,1,4,79,3000,J,chosen,,,,,,,0,10,1
79,,0,1,4,80,2100,E,unchosen,,,,,,,0,10,1
80,,0,1,4,81,1300,I,chosen,,,,,,,0,10,1
81,,0,1,4,82,3200,F,unchosen,,,,,,,1,10,1
82,,0,1,4,83,1100,L,chosen,,,,,,,0,10,1
83,,0,1,4,84,1400,G,chosen,,,,,,,0,10,1
84,,0,1,4,85,1200,C,unchosen,,,,,,,0,10,1
85,,0,1,4,86,2300,L,unchosen,,,,,,,0,10,1
86,,0,1,4,87,3100,C,chosen,,,,,,,1,10,1
87,,0,1,4,88,1200,K,unchosen,,,,,,,0,10,1
88,,0,1,4,89,1100,F,chosen,,,,,,,0,10,1
89,,0,1,4,90,1500,E,chosen,,,,,,,0,10,1
90,,0,1,4,91,2900,B,unchosen,,,,,,,0,10,1
91,,0,1,4,92,1500,B,chosen,,,,,,,0,10,1
92,,0,1,4,93,4200,G,unchosen,,,,,,,1,10,1
93,,0,1,4,94,1600,A,unchosen,,,,,,,0,10,1
94,,0,1,4,95,1000,A,chosen,,,,,,,0,10,1
95,,0,1,4,96,1800,J,unchosen,,,,,,,0,10,1
96,,0,1,4,97,2000,D,chosen,,,,,,,0,10,1
97,,0,1,4,98,1400,D,unchosen,,,,,,,0,10,1
98,,0,1,4,99,4800,H,chosen,,,,,,,1,10,1